gpsTOW	cT	EKF VelN	EKF VelE	EKF VelD	EKF PosN	EKF PosE	EKF PosD	EKF Roll	EKF Pitch	EKF Yaw	EKF Lat	EKF Lon	EKF Alt	CMP VelN	CMP VelE	CMP VelD	CMP PosN	CMP PosE	CMP PosD	CMP Roll	CMP Pitch	CMP Yaw	CMP Lat	CMP Lon	CMP Alt	GPS Lat	GPS Lon	GPS Alt	GPS VelN	GPS VelE	GPS VelD	AccelX	AccelY	AccelZ	GyroX	GyroY	GyroZ	MagX	MagY	MagZ	piAlpha	piPfwd	piP45	ardAlpha	ardPfwd	ardP45	Alpha	Beta
413337950.0000000	18225.0000000	-0.0072683	-0.0866959	-0.0520000	1.5206683	3.3191571	3.3190002	-1.1793729	2.4030664	124.9564514	29.1816284	-81.0454684	-16.8820000	0.0397085	-0.0415045	-0.0858764	0.3167207	0.0950332	16.9466839	-2.4375000	-2.0625000	36.1713028	29.1816250	-81.0454615	-16.9466839	29.1816284	-81.0454684	-16.8820000	0.0470000	0.0740000	-0.0520000	0.3600000	-0.3700000	9.9600000	-0.0000000	0.1250000	-0.0000000	-27.7500000	-18.0625000	32.6875000	66.7008667	8140.0000000	8150.0000000	32.4000015	8130.0000000	8131.0000000	0.5904325	1.3592784
413337975.0000000	18250.0000000	-0.0072683	-0.0866959	-0.0520000	1.5206683	3.3191571	3.3190002	-1.1786555	2.4042287	124.9572449	29.1816284	-81.0454684	-16.8820000	0.0391497	-0.0515576	-0.0916994	0.3167067	0.0947819	16.9468288	-2.4375000	-2.0625000	36.4316101	29.1816250	-81.0454615	-16.9468288	29.1816284	-81.0454684	-16.8820000	0.0470000	0.0740000	-0.0520000	0.3600000	-0.3500000	10.0799999	-0.0000000	-0.0625000	0.0625000	-27.3750000	-18.0625000	31.3750000	57.4782715	8143.0000000	8150.0000000	34.2000008	8133.0000000	8125.0000000	1.4976891	3.6651115
413338000.0000000	18275.0000000	-0.0062658	-0.0747378	-0.0590000	1.5206683	3.9829886	3.3820000	-1.1763417	2.4046266	124.9588318	29.1816284	-81.0454615	-16.8190002	0.0345953	-0.0094170	-0.0801646	0.3193370	0.0946298	16.8957367	-2.4375000	-2.0625000	36.4316101	29.1816250	-81.0454615	-16.8957367	29.1816284	-81.0454615	-16.8190002	0.0290000	0.0690000	-0.0590000	0.3600000	-0.3600000	9.9499998	0.1250000	0.0625000	0.0625000	-27.3750000	-18.0625000	31.3750000	51.3298798	8145.0000000	8150.0000000	33.3800011	8130.0000000	8125.0000000	0.0895875	-0.1392350
413338025.0000000	18300.0000000	-0.0062658	-0.0747378	-0.0590000	1.5206683	3.9829886	3.3820000	-1.1699153	2.4061768	124.9589844	29.1816284	-81.0454615	-16.8190002	0.0335983	-0.0185987	-0.0857901	0.3193120	0.0944003	16.8958778	-2.4375000	-2.0625000	37.2161598	29.1816250	-81.0454615	-16.8958778	29.1816284	-81.0454615	-16.8190002	0.0290000	0.0690000	-0.0590000	0.3300000	-0.3300000	10.0699997	-0.0625000	0.0000000	-0.0000000	-27.7500000	-18.8750000	31.8750000	57.4782715	8143.0000000	8150.0000000	31.1800003	8124.0000000	8128.0000000	-0.0886205	0.1352326
413338050.0000000	18325.0000000	-0.0062658	-0.0747378	-0.0590000	1.5206683	3.9829886	3.3820000	-1.1747220	2.4041841	124.9582748	29.1816284	-81.0454615	-16.8190002	0.0343621	-0.0288053	-0.0918092	0.3193311	0.0941451	16.8960285	-2.4375000	-2.0625000	37.2161598	29.1816250	-81.0454615	-16.8960285	29.1816284	-81.0454615	-16.8190002	0.0290000	0.0690000	-0.0590000	0.4100000	-0.3200000	10.0900002	-0.3750000	-0.1875000	-0.0625000	-27.7500000	-18.8750000	31.8750000	-123.2808990	8143.0000000	8144.0000000	32.5600014	8127.0000000	8125.0000000	-0.3186186	1.0852985
413338075.0000000	18350.0000000	-0.0062658	-0.0747378	-0.0590000	1.5206683	3.9829886	3.3820000	-1.1747768	2.4037840	124.9590912	29.1816284	-81.0454615	-16.8190002	0.0345745	-0.0402421	-0.0945417	0.3193364	0.0938592	16.8960972	-2.4375000	-2.0625000	35.8333244	29.1816250	-81.0454615	-16.8960972	29.1816284	-81.0454615	-16.8190002	0.0290000	0.0690000	-0.0590000	0.4200000	-0.3800000	9.9600000	0.3125000	0.1250000	0.1250000	-28.5625000	-18.5000000	31.3750000	-55.6485672	8145.0000000	8144.0000000	32.7999992	8133.0000000	8134.0000000	-0.4543923	3.0770416
413338100.0000000	18375.0000000	-0.0062658	-0.0747378	-0.0590000	1.5206683	3.9829886	3.3820000	-1.1677040	2.4057767	124.9622040	29.1816284	-81.0454615	-16.8190002	0.0339044	-0.0492117	-0.0991633	0.3193197	0.0936349	16.8962135	-2.4375000	-2.0625000	35.8333244	29.1816250	-81.0454615	-16.8962135	29.1816284	-81.0454615	-16.8190002	0.0290000	0.0690000	-0.0590000	0.3300000	-0.3200000	10.0299997	0.1875000	0.0000000	0.1250000	-28.5625000	-18.5000000	31.3750000	-55.6485672	8145.0000000	8144.0000000	34.8199997	8133.0000000	8120.0000000	-0.0971251	-0.0713564
413338100.0000000	18400.0000000	-0.0055139	-0.0657693	-0.0590000	1.5206683	3.9829886	3.4400005	-1.1622587	2.4069555	124.9637756	29.1816284	-81.0454615	-16.7609997	0.0408976	-0.0186087	-0.0865805	0.3219662	0.0934879	16.8422146	-2.4375000	-2.0625000	34.5213776	29.1816250	-81.0454615	-16.8422146	29.1816284	-81.0454615	-16.7609997	0.0510000	0.0420000	-0.0590000	0.3700000	-0.3300000	10.0799999	0.1875000	0.0625000	-0.0000000	-28.1875000	-17.3750000	30.2500000	75.5541916	8143.0000000	8147.0000000	33.7799988	8133.0000000	8128.0000000	0.0949270	0.0686719
413338125.0000000	18425.0000000	-0.0055139	-0.0657693	-0.0590000	1.5206683	3.9829886	3.4400005	-1.1542873	2.4101927	124.9638977	29.1816284	-81.0454615	-16.7609997	0.0401341	-0.0291930	-0.0893845	0.3219471	0.0932233	16.8422852	-2.4375000	-2.0625000	34.5213776	29.1816250	-81.0454615	-16.8422852	29.1816284	-81.0454615	-16.7609997	0.0510000	0.0420000	-0.0590000	0.3600000	-0.3800000	9.9600000	-0.0000000	0.1250000	0.0625000	-28.1875000	-17.3750000	30.2500000	-123.2808990	8143.0000000	8144.0000000	35.5800018	8136.0000000	8120.0000000	0.6176873	0.7055244
413338150.0000000	18450.0000000	-0.0055139	-0.0657693	-0.0590000	1.5206683	3.9829886	3.4400005	-1.1535881	2.4113402	124.9638977	29.1816284	-81.0454615	-16.7609997	0.0404532	-0.0392886	-0.0936721	0.3219551	0.0929709	16.8423920	-2.4375000	-2.0625000	34.2290573	29.1816250	-81.0454615	-16.8423920	29.1816284	-81.0454615	-16.7609997	0.0510000	0.0420000	-0.0590000	0.3800000	-0.3400000	10.0200005	-0.0000000	-0.0625000	-0.0625000	-28.1875000	-17.0625000	31.8750000	57.4782715	8143.0000000	8150.0000000	32.9199982	8130.0000000	8128.0000000	1.6021369	2.2300627
413338175.0000000	18475.0000000	-0.0055139	-0.0657693	-0.0590000	1.5206683	3.9829886	3.4400005	-1.1528872	2.4109254	124.9639435	29.1816284	-81.0454615	-16.7609997	0.0407754	-0.0496682	-0.0961954	0.3219631	0.0927114	16.8424549	-2.4375000	-2.0625000	34.2290573	29.1816250	-81.0454615	-16.8424549	29.1816284	-81.0454615	-16.7609997	0.0510000	0.0420000	-0.0590000	0.3900000	-0.3500000	9.9499998	-0.0000000	0.0000000	0.0625000	-28.1875000	-17.0625000	31.8750000	57.3912125	8151.0000000	8141.0000000	32.5600014	8127.0000000	8125.0000000	0.1001665	-0.0558660
413338200.0000000	18500.0000000	-0.0055139	-0.0657693	-0.0590000	1.5206683	3.9829886	3.4400005	-1.1520889	2.4121199	124.9662781	29.1816284	-81.0454615	-16.7609997	0.0403707	-0.0599209	-0.1012534	0.3219530	0.0924551	16.8425808	-2.4375000	-2.0625000	34.5515366	29.1816250	-81.0454615	-16.8425808	29.1816284	-81.0454615	-16.7609997	0.0510000	0.0420000	-0.0590000	0.3600000	-0.3600000	10.0500002	-0.0000000	0.0625000	0.1250000	-28.1875000	-17.3750000	30.5625000	41.7380257	8148.0000000	8147.0000000	33.3800011	8130.0000000	8125.0000000	-0.0988931	0.0536265
413338225.0000000	18525.0000000	-0.0055139	-0.0657693	-0.0590000	1.5206683	3.9829886	3.4400005	-1.1505094	2.4133141	124.9686432	29.1816284	-81.0454615	-16.7609997	0.0401459	-0.0705723	-0.1037848	0.3219474	0.0921888	16.8426437	-2.4375000	-2.0625000	34.5515366	29.1816250	-81.0454615	-16.8426437	29.1816284	-81.0454615	-16.7609997	0.0510000	0.0420000	-0.0590000	0.3800000	-0.3700000	9.9499998	0.0625000	0.0000000	0.0625000	-28.1875000	-17.3750000	30.5625000	45.7999268	8148.0000000	8144.0000000	32.9199982	8130.0000000	8128.0000000	-0.4016094	0.5849062
413338250.0000000	18550.0000000	-0.0055139	-0.0657693	-0.0590000	1.5206683	3.9829886	3.4400005	-1.1497755	2.4129152	124.9694443	29.1816284	-81.0454615	-16.7609997	0.0391531	-0.0809036	-0.1101123	0.3219226	0.0919305	16.8428020	-2.4375000	-2.0625000	36.1713028	29.1816250	-81.0454615	-16.8428020	29.1816284	-81.0454615	-16.7609997	0.0510000	0.0420000	-0.0590000	0.3500000	-0.3700000	10.1000004	-0.0625000	-0.0625000	-0.0000000	-27.7500000	-18.0625000	32.6875000	57.3912125	8151.0000000	8141.0000000	34.2000008	8133.0000000	8125.0000000	-0.7232810	1.8329515
413338300.0000000	18575.0000000	-0.0155391	-0.1853498	-0.0660000	1.5206683	3.9829886	3.5669994	-1.1491395	2.4116879	124.9679413	29.1816284	-81.0454615	-16.6340008	0.0965145	-0.0677497	-0.0943188	0.3245507	0.0917803	16.7593269	-2.4375000	-2.0625000	36.1713028	29.1816250	-81.0454615	-16.7593269	29.1816284	-81.0454615	-16.6340008	0.1840000	-0.0330000	-0.0660000	0.3500000	-0.3600000	9.9700003	0.0625000	-0.0625000	-0.1250000	-27.7500000	-18.0625000	32.6875000	18.7441635	8143.0000000	8141.0000000	33.7799988	8133.0000000	8128.0000000	-1.0141016	4.1159568
413338325.0000000	18600.0000000	-0.0155391	-0.1853498	-0.0660000	1.5206683	3.9829886	3.5669994	-1.1382141	2.4109070	124.9650345	29.1816284	-81.0454615	-16.6340008	0.0963913	-0.0783339	-0.1008545	0.3245477	0.0915157	16.7594910	-2.4375000	-2.0625000	35.5718460	29.1816250	-81.0454615	-16.7594910	29.1816284	-81.0454615	-16.6340008	0.1840000	-0.0330000	-0.0660000	0.3800000	-0.3600000	10.1099997	0.3750000	-0.0625000	-0.0625000	-28.1875000	-18.0625000	31.0625000	18.7441635	8143.0000000	8141.0000000	32.7999992	8133.0000000	8134.0000000	0.0327147	-0.1254603
413338350.0000000	18625.0000000	-0.0155391	-0.1853498	-0.0660000	1.5206683	3.9829886	3.5669994	-1.1321023	2.4096806	124.9635315	29.1816284	-81.0454615	-16.6340008	0.0959968	-0.0889957	-0.1038922	0.3245378	0.0912492	16.7595673	-2.4375000	-2.0625000	35.5718460	29.1816250	-81.0454615	-16.7595673	29.1816284	-81.0454615	-16.6340008	0.1840000	-0.0330000	-0.0660000	0.3800000	-0.3700000	9.9700003	0.0625000	-0.0625000	-0.0625000	-28.1875000	-18.0625000	31.0625000	75.5541916	8143.0000000	8147.0000000	33.7799988	8133.0000000	8128.0000000	-0.0324933	0.1224168
413338375.0000000	18650.0000000	-0.0155391	-0.1853498	-0.0660000	1.5206683	3.9829886	3.5669994	-1.1298319	2.4092660	124.9635544	29.1816284	-81.0454615	-16.6340008	0.0955498	-0.0991525	-0.1099571	0.3245266	0.0909953	16.7597179	-2.4375000	-2.0625000	33.8153343	29.1816250	-81.0454615	-16.7597179	29.1816284	-81.0454615	-16.6340008	0.1840000	-0.0330000	-0.0660000	0.3500000	-0.3600000	10.0900002	0.0625000	0.0000000	0.0625000	-28.5625000	-17.0625000	31.3750000	62.0277252	8145.0000000	8147.0000000	32.5600014	8127.0000000	8125.0000000	-0.0847974	0.8448549
413338400.0000000	18675.0000000	-0.0062658	-0.0747378	-0.0600000	1.5206683	3.9829886	3.6100006	-1.1283765	2.4103990	124.9627762	29.1816284	-81.0454615	-16.5909996	0.0853969	-0.0551209	-0.0918160	0.3271609	0.0908445	16.6922760	-2.4375000	-2.0625000	33.8153343	29.1816250	-81.0454615	-16.6922760	29.1816284	-81.0454615	-16.5909996	0.0710000	0.0260000	-0.0600000	0.3500000	-0.3600000	9.9700003	-0.0000000	0.0625000	-0.1250000	-28.5625000	-17.0625000	31.3750000	1.1586227	8154.0000000	8147.0000000	32.9199982	8130.0000000	8128.0000000	-0.0562688	2.2618377
413338425.0000000	18700.0000000	-0.0062658	-0.0747378	-0.0600000	1.5206683	3.9829886	3.6100006	-1.1228691	2.4120893	124.9606247	29.1816284	-81.0454615	-16.5909996	0.0854891	-0.0651295	-0.0976175	0.3271632	0.0905943	16.6924210	-2.4375000	-2.0625000	34.6645699	29.1816250	-81.0454615	-16.6924210	29.1816284	-81.0454615	-16.5909996	0.0710000	0.0260000	-0.0600000	0.3700000	-0.3400000	10.0799999	-0.0000000	0.0000000	-0.0000000	-27.7500000	-17.0625000	31.8750000	41.7380257	8148.0000000	8147.0000000	34.2000008	8133.0000000	8125.0000000	0.0728466	-0.1335002
413338450.0000000	18725.0000000	-0.0062658	-0.0747378	-0.0600000	1.5206683	3.9829886	3.6100006	-1.1220546	2.4109404	124.9630127	29.1816284	-81.0454615	-16.5909996	0.0851801	-0.0754328	-0.1001667	0.3271555	0.0903367	16.6924839	-2.4375000	-2.0625000	34.6645699	29.1816250	-81.0454615	-16.6924839	29.1816284	-81.0454615	-16.5909996	0.0710000	0.0260000	-0.0600000	0.3700000	-0.3600000	9.9499998	-0.0000000	-0.1250000	0.1875000	-27.7500000	-17.0625000	31.8750000	147.2484283	8151.0000000	8144.0000000	34.2000008	8133.0000000	8125.0000000	-0.0719632	0.1302442
413338475.0000000	18750.0000000	-0.0062658	-0.0747378	-0.0600000	1.5206683	3.9829886	3.6100006	-1.1219877	2.4090250	124.9662094	29.1816284	-81.0454615	-16.5909996	0.0854163	-0.0855370	-0.1062092	0.3271614	0.0900841	16.6926346	-2.4375000	-2.0625000	37.0918770	29.1816250	-81.0454615	-16.6926346	29.1816284	-81.0454615	-16.5909996	0.0710000	0.0260000	-0.0600000	0.3900000	-0.3300000	10.0900002	-0.0625000	-0.0625000	0.0625000	-27.3750000	-18.5000000	31.8750000	41.7380257	8148.0000000	8147.0000000	33.6599998	8130.0000000	8123.0000000	-0.2811546	0.9031137
413338500.0000000	18775.0000000	-0.0097746	-0.1165910	-0.0560000	1.5206683	3.9829886	3.6660004	-1.1212717	2.4078298	124.9662628	29.1816284	-81.0454615	-16.5349998	0.0406317	-0.0118747	-0.0881080	0.3297985	0.0899303	16.6296310	-2.4375000	-2.0625000	37.0918770	29.1816250	-81.0454615	-16.6296310	29.1816284	-81.0454615	-16.5349998	-0.0260000	0.1140000	-0.0560000	0.3800000	-0.3500000	9.9799995	0.0625000	-0.0625000	-0.0625000	-27.3750000	-18.5000000	31.8750000	28.4059258	8145.0000000	8141.0000000	33.7799988	8133.0000000	8128.0000000	-0.4834926	2.4228930
413338525.0000000	18800.0000000	-0.0097746	-0.1165910	-0.0560000	1.5206683	3.9829886	3.6660004	-1.1166790	2.4081059	124.9664917	29.1816284	-81.0454615	-16.5349998	0.0404216	-0.0217205	-0.0934267	0.3297933	0.0896842	16.6297646	-2.4375000	-2.0625000	35.1328888	29.1816250	-81.0454615	-16.6297646	29.1816284	-81.0454615	-16.5349998	-0.0260000	0.1140000	-0.0560000	0.3600000	-0.3400000	10.0600004	-0.1250000	0.0000000	0.1250000	-28.1875000	-17.7500000	31.0625000	-55.6485672	8145.0000000	8144.0000000	32.0400009	8127.0000000	8128.0000000	-0.0971251	-0.0404229
413338550.0000000	18825.0000000	-0.0097746	-0.1165910	-0.0560000	1.5206683	3.9829886	3.6660004	-1.1166724	2.4077227	124.9680939	29.1816284	-81.0454615	-16.5349998	0.0400563	-0.0320470	-0.0967279	0.3297842	0.0894260	16.6298466	-2.4375000	-2.0625000	35.1328888	29.1816250	-81.0454615	-16.6298466	29.1816284	-81.0454615	-16.5349998	-0.0260000	0.1140000	-0.0560000	0.3700000	-0.3600000	9.9799995	0.0625000	-0.0625000	-0.0000000	-28.1875000	-17.7500000	31.0625000	51.3298798	8145.0000000	8150.0000000	33.3199997	8133.0000000	8131.0000000	0.0950949	0.0382772
413338575.0000000	18850.0000000	-0.0097746	-0.1165910	-0.0560000	1.5206683	3.9829886	3.6660004	-1.1144856	2.4064825	124.9657974	29.1816284	-81.0454615	-16.5349998	0.0393630	-0.0423026	-0.1025471	0.3297668	0.0891696	16.6299915	-2.4375000	-2.0625000	36.3523483	29.1816250	-81.0454615	-16.6299915	29.1816284	-81.0454615	-16.5349998	-0.0260000	0.1140000	-0.0560000	0.3600000	-0.3600000	10.0799999	0.0625000	-0.0625000	-0.1875000	-27.3750000	-18.0625000	30.5625000	41.7380257	8148.0000000	8147.0000000	32.4000015	8130.0000000	8131.0000000	0.5778558	0.5472006
413338600.0000000	18875.0000000	-0.0042607	-0.0508217	-0.0680000	1.5206683	3.9829886	3.7450008	-1.1122999	2.4068048	124.9634781	29.1816284	-81.0454615	-16.4559994	0.0257682	-0.0114596	-0.0910155	0.3324032	0.0890177	16.5604515	-2.4375000	-2.0625000	36.3523483	29.1816250	-81.0454615	-16.5604515	29.1816284	-81.0454615	-16.4559994	0.0060000	0.0500000	-0.0680000	0.3700000	-0.3500000	10.0000000	0.0625000	0.0625000	-0.0000000	-27.3750000	-18.0625000	30.5625000	45.7999268	8148.0000000	8144.0000000	35.0200005	8136.0000000	8125.0000000	1.4521582	1.8197966
413338625.0000000	18900.0000000	-0.0042607	-0.0508217	-0.0680000	1.5206683	3.9829886	3.7450008	-1.1079172	2.4079225	124.9613571	29.1816284	-81.0454615	-16.4559994	0.0251293	-0.0217283	-0.0970825	0.3323872	0.0887610	16.5606041	-2.4375000	-2.0625000	36.0927811	29.1816250	-81.0454615	-16.5606041	29.1816284	-81.0454615	-16.4559994	0.0060000	0.0500000	-0.0680000	0.3600000	-0.3600000	10.0900002	-0.1250000	-0.0625000	-0.1250000	-27.7500000	-18.0625000	31.8750000	-123.2808990	8143.0000000	8144.0000000	32.4000015	8130.0000000	8131.0000000	2.6982286	4.0811377
413338650.0000000	18925.0000000	-0.0042607	-0.0508217	-0.0680000	1.5206683	3.9829886	3.7450008	-1.1095650	2.4074950	124.9606094	29.1816284	-81.0454615	-16.4559994	0.0246023	-0.0320539	-0.1006399	0.3323741	0.0885028	16.5606937	-2.4375000	-2.0625000	36.0927811	29.1816250	-81.0454615	-16.5606937	29.1816284	-81.0454615	-16.4559994	0.0060000	0.0500000	-0.0680000	0.3700000	-0.3600000	9.9899998	-0.0625000	0.0000000	0.0625000	-27.7500000	-18.0625000	31.8750000	62.0277252	8145.0000000	8147.0000000	33.3199997	8133.0000000	8131.0000000	0.1082588	-0.0323898
413338675.0000000	18950.0000000	-0.0042607	-0.0508217	-0.0680000	1.5206683	3.9829886	3.7450008	-1.1111485	2.4086595	124.9614029	29.1816284	-81.0454615	-16.4559994	0.0243798	-0.0422534	-0.1061943	0.3323685	0.0882478	16.5608330	-2.4375000	-2.0625000	35.6033478	29.1816250	-81.0454615	-16.5608330	29.1816284	-81.0454615	-16.4559994	0.0060000	0.0500000	-0.0680000	0.3700000	-0.3500000	10.0699997	-0.1250000	0.0625000	-0.0000000	-27.7500000	-17.7500000	31.3750000	41.7380257	8148.0000000	8147.0000000	33.7799988	8133.0000000	8128.0000000	-0.1069338	0.0304449
413338700.0000000	18975.0000000	-0.0037595	-0.0448427	-0.0660000	1.5206683	3.9829886	3.7730007	-1.1143587	2.4082322	124.9606628	29.1816284	-81.0454615	-16.4279995	0.0265258	-0.0186522	-0.0923805	0.3350085	0.0880853	16.5077553	-2.4375000	-2.0625000	35.6033478	29.1816250	-81.0454615	-16.5077553	29.1816284	-81.0454615	-16.4279995	0.0300000	0.0330000	-0.0660000	0.3900000	-0.3700000	10.0000000	-0.1875000	-0.1250000	-0.0625000	-27.7500000	-17.7500000	31.3750000	42.8985672	8148.0000000	8141.0000000	32.9199982	8130.0000000	8128.0000000	-0.4221334	0.4915784
413338725.0000000	19000.0000000	-0.0037595	-0.0448427	-0.0660000	1.5206683	3.9829886	3.7730007	-1.1108601	2.4071095	124.9586029	29.1816284	-81.0454615	-16.4279995	0.0265423	-0.0290328	-0.0989198	0.3350089	0.0878258	16.5079193	-2.4375000	-2.0625000	35.6033478	29.1816250	-81.0454615	-16.5079193	29.1816284	-81.0454615	-16.4279995	0.0300000	0.0330000	-0.0660000	0.3800000	-0.3500000	10.1099997	0.0625000	-0.0625000	-0.0625000	-27.7500000	-17.7500000	31.3750000	28.4059258	8145.0000000	8141.0000000	32.9199982	8130.0000000	8128.0000000	-0.6954265	1.6979136
413338750.0000000	19025.0000000	-0.0037595	-0.0448427	-0.0660000	1.5206683	3.9829886	3.7730007	-1.1077812	2.4066978	124.9586258	29.1816284	-81.0454615	-16.4279995	0.0263933	-0.0389570	-0.1024807	0.3350052	0.0875777	16.5080090	-2.4375000	-2.0625000	35.6033478	29.1816250	-81.0454615	-16.5080090	29.1816284	-81.0454615	-16.4279995	0.0300000	0.0330000	-0.0660000	0.3700000	-0.3400000	9.9899998	0.1250000	0.0000000	0.0625000	-27.7500000	-17.7500000	31.3750000	28.4059258	8145.0000000	8141.0000000	33.3199997	8133.0000000	8131.0000000	-0.8130891	4.0476890
413338775.0000000	19050.0000000	-0.0037595	-0.0448427	-0.0660000	1.5206683	3.9829886	3.7730007	-1.1062654	2.4070673	124.9586563	29.1816284	-81.0454615	-16.4279995	0.0265553	-0.0494645	-0.1085087	0.3350093	0.0873150	16.5081596	-2.4375000	-2.0625000	35.8245621	29.1816250	-81.0454615	-16.5081596	29.1816284	-81.0454615	-16.4279995	0.0300000	0.0330000	-0.0660000	0.3900000	-0.3500000	10.0900002	-0.0625000	0.0000000	-0.0625000	-27.0625000	-17.3750000	31.8750000	-224.7294006	8140.0000000	8144.0000000	33.3199997	8133.0000000	8131.0000000	-0.3922268	-0.0898518
413338800.0000000	19075.0000000	-0.0034253	-0.0408567	-0.0750000	1.5206683	3.9829886	3.8400002	-1.1063135	2.4089992	124.9586411	29.1816284	-81.0454615	-16.3610001	0.0245456	-0.0499418	-0.0966314	0.3376472	0.0871584	16.4493332	-2.4375000	-2.0625000	35.8245621	29.1816250	-81.0454615	-16.4493332	29.1816284	-81.0454615	-16.3610001	0.0220000	-0.0350000	-0.0750000	0.3800000	-0.3600000	9.9499998	-0.0000000	0.1250000	0.0625000	-27.0625000	-17.3750000	31.8750000	45.7999268	8148.0000000	8144.0000000	33.7799988	8133.0000000	8128.0000000	0.3851844	0.0869597
413338825.0000000	19100.0000000	-0.0034253	-0.0408567	-0.0750000	1.5206683	3.9829886	3.8400002	-1.1019405	2.4111643	124.9588699	29.1816284	-81.0454615	-16.3610001	0.0245223	-0.0601481	-0.1021782	0.3376466	0.0869033	16.4494724	-2.4375000	-2.0625000	34.4601746	29.1816250	-81.0454615	-16.4494724	29.1816284	-81.0454615	-16.3610001	0.0220000	-0.0350000	-0.0750000	0.3700000	-0.3500000	10.0699997	-0.0625000	-0.0625000	-0.0000000	-28.8750000	-17.7500000	31.0625000	42.8985672	8148.0000000	8141.0000000	33.3199997	8133.0000000	8131.0000000	2.0594411	0.7730652
413338850.0000000	19125.0000000	-0.0034253	-0.0408567	-0.0750000	1.5206683	3.9829886	3.8400002	-1.1027278	2.4099874	124.9597092	29.1816284	-81.0454615	-16.3610001	0.0246617	-0.0707349	-0.1046992	0.3376501	0.0866386	16.4495354	-2.4375000	-2.0625000	34.4601746	29.1816250	-81.0454615	-16.4495354	29.1816284	-81.0454615	-16.3610001	0.0220000	-0.0350000	-0.0750000	0.3900000	-0.3600000	9.9499998	-0.0625000	-0.0625000	0.0625000	-28.8750000	-17.7500000	31.0625000	51.3298798	8145.0000000	8150.0000000	35.0200005	8136.0000000	8125.0000000	0.0895875	-0.1688271
413338875.0000000	19150.0000000	-0.0034253	-0.0408567	-0.0750000	1.5206683	3.9829886	3.8400002	-1.1050447	2.4088261	124.9613190	29.1816284	-81.0454615	-16.3610001	0.0241790	-0.0809825	-0.1097603	0.3376380	0.0863824	16.4496613	-2.4375000	-2.0625000	34.9960747	29.1816250	-81.0454615	-16.4496613	29.1816284	-81.0454615	-16.3610001	0.0220000	-0.0350000	-0.0750000	0.3600000	-0.3600000	10.0500002	-0.1875000	-0.0625000	0.0625000	-27.3750000	-17.0625000	31.3750000	75.5541916	8143.0000000	8147.0000000	32.5600014	8127.0000000	8125.0000000	-0.0884494	0.1648767
413338900.0000000	19175.0000000	-0.0085214	-0.1016434	-0.0650000	1.5206683	3.9829886	3.7770004	-1.1065819	2.4092267	124.9629059	29.1816284	-81.0454615	-16.4239998	-0.0071046	-0.0895327	-0.0933811	0.3402803	0.0862288	16.4394341	-2.4375000	-2.0625000	34.9960747	29.1816250	-81.0454615	-16.4394341	29.1816284	-81.0454615	-16.4239998	-0.0540000	-0.0870000	-0.0650000	0.3800000	-0.3500000	9.9499998	-0.0000000	0.0625000	0.0625000	-27.3750000	-17.0625000	31.3750000	62.0277252	8145.0000000	8147.0000000	34.6399994	8136.0000000	8128.0000000	-0.3587809	1.1024988
413338925.0000000	19200.0000000	-0.0085214	-0.1016434	-0.0650000	1.5206683	3.9829886	3.7770004	-1.1014462	2.4115021	124.9631500	29.1816284	-81.0454615	-16.4239998	-0.0076269	-0.1001384	-0.0989290	0.3402673	0.0859637	16.4395733	-2.4375000	-2.0625000	35.6519089	29.1816250	-81.0454615	-16.4395733	29.1816284	-81.0454615	-16.4239998	-0.0540000	-0.0870000	-0.0650000	0.3700000	-0.3700000	10.0699997	-0.0000000	0.0000000	-0.0000000	-27.7500000	-17.7500000	31.8750000	75.5541916	8143.0000000	8147.0000000	34.2000008	8133.0000000	8125.0000000	-0.6307690	2.8963053
413338950.0000000	19225.0000000	-0.0085214	-0.1016434	-0.0650000	1.5206683	3.9829886	3.7770004	-1.0999163	2.4103124	124.9631882	29.1816284	-81.0454615	-16.4239998	-0.0081637	-0.1110207	-0.1024630	0.3402539	0.0856916	16.4396610	-2.4375000	-2.0625000	35.6519089	29.1816250	-81.0454615	-16.4396610	29.1816284	-81.0454615	-16.4239998	-0.0540000	-0.0870000	-0.0650000	0.3800000	-0.3800000	9.9899998	0.0625000	-0.1250000	-0.0000000	-27.7500000	-17.7500000	31.8750000	-123.2808990	8143.0000000	8144.0000000	32.9199982	8130.0000000	8128.0000000	-0.2151658	-0.3378254
413338975.0000000	19250.0000000	-0.0085214	-0.1016434	-0.0650000	1.5206683	3.9829886	3.7770004	-1.0991993	2.4075441	124.9624939	29.1816284	-81.0454615	-16.4239998	-0.0085407	-0.1214146	-0.1077644	0.3402444	0.0854318	16.4397926	-2.4375000	-2.0625000	35.6033478	29.1816250	-81.0454615	-16.4397926	29.1816284	-81.0454615	-16.4239998	-0.0540000	-0.0870000	-0.0650000	0.3700000	-0.3600000	10.0600004	-0.0625000	-0.1250000	-0.0625000	-27.7500000	-17.7500000	31.3750000	58.2828484	8154.0000000	8138.0000000	34.8199997	8133.0000000	8120.0000000	0.2113623	0.3312884
413339000.0000000	19275.0000000	-0.0085214	-0.1016434	-0.0650000	1.5206683	3.9829886	3.7770004	-1.0985157	2.4055429	124.9609909	29.1816284	-81.0454615	-16.4239998	-0.0091134	-0.1322525	-0.1100500	0.3402301	0.0851609	16.4398499	-2.4375000	-2.0625000	35.6033478	29.1816250	-81.0454615	-16.4398499	29.1816284	-81.0454615	-16.4239998	-0.0540000	-0.0870000	-0.0650000	0.3800000	-0.3800000	9.9399996	0.0625000	-0.0625000	-0.0625000	-27.7500000	-17.7500000	31.3750000	71.8838501	8154.0000000	8141.0000000	33.7799988	8133.0000000	8128.0000000	1.1159376	1.8832436
413339000.0000000	19300.0000000	-0.0160404	-0.1913288	-0.0550000	1.5206683	3.9829886	3.7240009	-1.0977678	2.4051335	124.9610138	29.1816284	-81.0454615	-16.4769993	-0.0664477	-0.1314577	-0.0919512	0.3428783	0.0850082	16.4548073	-2.4375000	-2.0625000	34.4192734	29.1816250	-81.0454615	-16.4548073	29.1816284	-81.0454615	-16.4769993	-0.1530000	-0.1150000	-0.0550000	0.3800000	-0.3400000	10.1099997	-0.0625000	0.0000000	0.0625000	-27.7500000	-17.0625000	29.3750000	21.4483242	8151.0000000	8147.0000000	33.7799988	8133.0000000	8128.0000000	2.5499034	4.5316162
413339025.0000000	19325.0000000	-0.0160404	-0.1913288	-0.0550000	1.5206683	3.9829886	3.7240009	-1.0943652	2.4066939	124.9597168	29.1816284	-81.0454615	-16.4769993	-0.0665070	-0.1419035	-0.0944854	0.3428768	0.0847471	16.4548702	-2.4375000	-2.0625000	34.4192734	29.1816250	-81.0454615	-16.4548702	29.1816284	-81.0454615	-16.4769993	-0.1530000	-0.1150000	-0.0550000	0.3800000	-0.3600000	9.9499998	-0.0625000	0.0000000	-0.1250000	-27.7500000	-17.0625000	29.3750000	21.4483242	8151.0000000	8147.0000000	31.4799995	8127.0000000	8131.0000000	0.0374343	-0.5252058
413339050.0000000	19350.0000000	-0.0160404	-0.1913288	-0.0550000	1.5206683	3.9829886	3.7240009	-1.0975839	2.4070373	124.9581757	29.1816284	-81.0454615	-16.4769993	-0.0665214	-0.1522395	-0.0997761	0.3428764	0.0844887	16.4550018	-2.4375000	-2.0625000	35.5240822	29.1816250	-81.0454615	-16.4550018	29.1816284	-81.0454615	-16.4769993	-0.1530000	-0.1150000	-0.0550000	0.3800000	-0.3500000	10.0600004	-0.2500000	0.0000000	-0.0000000	-28.1875000	-18.0625000	30.5625000	34.8716583	8145.0000000	8138.0000000	32.9199982	8130.0000000	8128.0000000	-0.0370554	0.5157801
413339075.0000000	19375.0000000	-0.0160404	-0.1913288	-0.0550000	1.5206683	3.9829886	3.7240009	-1.1007359	2.4066293	124.9582138	29.1816284	-81.0454615	-16.4769993	-0.0670234	-0.1622049	-0.1028473	0.3428639	0.0842395	16.4550781	-2.4375000	-2.0625000	35.5240822	29.1816250	-81.0454615	-16.4550781	29.1816284	-81.0454615	-16.4769993	-0.1530000	-0.1150000	-0.0550000	0.3600000	-0.3500000	9.9700003	-0.0625000	-0.0625000	-0.0000000	-28.1875000	-18.0625000	30.5625000	42.8985672	8148.0000000	8141.0000000	32.4000015	8130.0000000	8131.0000000	-0.1270799	2.7539573
413339100.0000000	19400.0000000	-0.0160404	-0.1913288	-0.0550000	1.5206683	3.9829886	3.7240009	-1.1007630	2.4062219	124.9582596	29.1816284	-81.0454615	-16.4769993	-0.0669623	-0.1724906	-0.1083877	0.3428654	0.0839824	16.4552174	-2.4375000	-2.0625000	37.1281967	29.1816250	-81.0454615	-16.4552174	29.1816284	-81.0454615	-16.4769993	-0.1530000	-0.1150000	-0.0550000	0.3900000	-0.3400000	10.0699997	-0.0000000	0.0000000	-0.0000000	-27.3750000	-18.5000000	32.2500000	34.8716583	8145.0000000	8138.0000000	34.2200012	8136.0000000	8131.0000000	0.0608625	-0.6340233
413339125.0000000	19425.0000000	-0.0160404	-0.1913288	-0.0550000	1.5206683	3.9829886	3.7240009	-1.1016055	2.4073608	124.9574661	29.1816284	-81.0454615	-16.4769993	-0.0672748	-0.1831033	-0.1119251	0.3428576	0.0837171	16.4553051	-2.4375000	-2.0625000	37.1281967	29.1816250	-81.0454615	-16.4553051	29.1816284	-81.0454615	-16.4769993	-0.1530000	-0.1150000	-0.0550000	0.3900000	-0.3600000	9.9899998	-0.1250000	0.0625000	-0.0625000	-27.3750000	-18.5000000	32.2500000	62.0277252	8145.0000000	8147.0000000	33.3199997	8133.0000000	8131.0000000	-0.0600907	0.6229221
413339150.0000000	19450.0000000	-0.0160404	-0.1913288	-0.0550000	1.5206683	3.9829886	3.7240009	-1.1024145	2.4077344	124.9574890	29.1816284	-81.0454615	-16.4769993	-0.0669709	-0.1937663	-0.1181917	0.3428652	0.0834505	16.4554615	-2.4375000	-2.0625000	36.2080231	29.1816250	-81.0454615	-16.4554615	29.1816284	-81.0454615	-16.4769993	-0.1530000	-0.1150000	-0.0550000	0.4000000	-0.3500000	10.1000004	-0.0000000	-0.0625000	0.0625000	-28.1875000	-18.5000000	31.3750000	62.0277252	8145.0000000	8147.0000000	34.6399994	8136.0000000	8128.0000000	-0.2433022	3.2591209
413339200.0000000	19475.0000000	-0.0137847	-0.1644232	-0.0480000	1.5206683	3.3191571	3.6879997	-1.1015948	2.4073560	124.9590912	29.1816284	-81.0454684	-16.5130005	-0.0613859	-0.1853045	-0.0920859	0.3455077	0.0786677	16.4785271	-2.4375000	-2.0625000	36.2080231	29.1816250	-81.0454615	-16.4785271	29.1816284	-81.0454684	-16.5130005	-0.0530000	-0.1570000	-0.0480000	0.3900000	-0.3500000	9.9799995	-0.0000000	0.0000000	0.0625000	-28.1875000	-18.5000000	31.3750000	42.1072884	8148.0000000	8150.0000000	32.9199982	8130.0000000	8128.0000000	0.0734911	-0.6778432
413339225.0000000	19500.0000000	-0.0137847	-0.1644232	-0.0480000	1.5206683	3.3191571	3.6879997	-1.0985293	2.4072814	124.9603882	29.1816284	-81.0454684	-16.5130005	-0.0609442	-0.1952399	-0.0976276	0.3455187	0.0784193	16.4786663	-2.4375000	-2.0625000	34.5998001	29.1816250	-81.0454615	-16.4786663	29.1816284	-81.0454684	-16.5130005	-0.0530000	-0.1570000	-0.0480000	0.3800000	-0.3300000	10.0699997	-0.0625000	0.0000000	0.0625000	-28.1875000	-17.3750000	31.0625000	62.0277252	8145.0000000	8147.0000000	32.0600014	8124.0000000	8123.0000000	-0.0725050	0.6660418
413339250.0000000	19525.0000000	-0.0137847	-0.1644232	-0.0480000	1.5206683	3.3191571	3.6879997	-1.0969577	2.4084501	124.9611816	29.1816284	-81.0454684	-16.5130005	-0.0614804	-0.2060004	-0.1014171	0.3455053	0.0781503	16.4787617	-2.4375000	-2.0625000	34.5998001	29.1816250	-81.0454615	-16.4787617	29.1816284	-81.0454684	-16.5130005	-0.0530000	-0.1570000	-0.0480000	0.3700000	-0.3800000	10.0000000	0.1250000	0.0625000	-0.0000000	-28.1875000	-17.3750000	31.0625000	28.4059258	8145.0000000	8141.0000000	32.5600014	8127.0000000	8125.0000000	-0.3066654	3.4686284
413339275.0000000	19550.0000000	-0.0137847	-0.1644232	-0.0480000	1.5206683	3.3191571	3.6879997	-1.0946715	2.4103696	124.9603729	29.1816284	-81.0454684	-16.5130005	-0.0618906	-0.2165364	-0.1069639	0.3454951	0.0778869	16.4789009	-2.4375000	-2.0625000	36.9647636	29.1816250	-81.0454615	-16.4789009	29.1816284	-81.0454684	-16.5130005	-0.0530000	-0.1570000	-0.0480000	0.3800000	-0.3600000	10.0699997	-0.0000000	0.0625000	-0.0625000	-27.3750000	-18.5000000	30.5625000	29.6691704	8143.0000000	8138.0000000	33.3400002	8124.0000000	8114.0000000	0.0517825	-0.7047104
413339300.0000000	19575.0000000	-0.0159568	-0.1903323	-0.0400000	1.5206683	3.3191571	3.6550007	-1.0954429	2.4107563	124.9611816	29.1816284	-81.0454684	-16.5459995	-0.0588498	-0.2098141	-0.0818653	0.3481248	0.0731030	16.5057831	-2.4375000	-2.0625000	36.9647636	29.1816250	-81.0454615	-16.5057831	29.1816284	-81.0454684	-16.5459995	-0.0530000	-0.1840000	-0.0400000	0.3700000	-0.3700000	9.9600000	-0.1250000	-0.0625000	0.1250000	-27.3750000	-18.5000000	30.5625000	-55.6485672	8145.0000000	8144.0000000	33.6599998	8130.0000000	8123.0000000	-0.0511025	0.6921604
413339325.0000000	19600.0000000	-0.0159568	-0.1903323	-0.0400000	1.5206683	3.3191571	3.6550007	-1.0916477	2.4092286	124.9632950	29.1816284	-81.0454684	-16.5459995	-0.0588457	-0.2201769	-0.0879051	0.3481249	0.0728439	16.5059338	-2.4375000	-2.0625000	35.5718460	29.1816250	-81.0454615	-16.5059338	29.1816284	-81.0454684	-16.5459995	-0.0530000	-0.1840000	-0.0400000	0.3800000	-0.3500000	10.0900002	0.1250000	-0.0625000	0.0625000	-28.1875000	-18.0625000	31.0625000	62.0277252	8145.0000000	8147.0000000	32.0400009	8127.0000000	8128.0000000	-0.2132972	3.6723757
413339350.0000000	19625.0000000	-0.0159568	-0.1903323	-0.0400000	1.5206683	3.3191571	3.6550007	-1.0885402	2.4072571	124.9633560	29.1816284	-81.0454684	-16.5459995	-0.0593379	-0.2301597	-0.0914759	0.3481126	0.0725943	16.5060234	-2.4375000	-2.0625000	35.5718460	29.1816250	-81.0454615	-16.5060234	29.1816284	-81.0454684	-16.5459995	-0.0530000	-0.1840000	-0.0400000	0.3600000	-0.3500000	9.9899998	0.0625000	-0.1250000	-0.0625000	-28.1875000	-18.0625000	31.0625000	75.5541916	8143.0000000	8147.0000000	34.2000008	8133.0000000	8125.0000000	0.1318669	-0.7095603
413339375.0000000	19650.0000000	-0.0159568	-0.1903323	-0.0400000	1.5206683	3.3191571	3.6550007	-1.0854324	2.4052851	124.9634247	29.1816284	-81.0454684	-16.5459995	-0.0590083	-0.2404551	-0.0972565	0.3481208	0.0723369	16.5061684	-2.4375000	-2.0625000	35.6519089	29.1816250	-81.0454615	-16.5061684	29.1816284	-81.0454684	-16.5459995	-0.0530000	-0.1840000	-0.0400000	0.3900000	-0.3400000	10.0799999	0.1250000	-0.0625000	0.0625000	-27.7500000	-17.7500000	31.8750000	75.5541916	8143.0000000	8147.0000000	33.2999992	8127.0000000	8120.0000000	-0.1298989	0.6973277
413339400.0000000	19675.0000000	-0.0179619	-0.2142484	-0.0290000	1.5206683	3.3191571	3.6300011	-1.0830741	2.4048910	124.9642410	29.1816284	-81.0454684	-16.5709991	-0.0518013	-0.2347788	-0.0719449	0.3507535	0.0675577	16.5321503	-2.4375000	-2.0625000	35.6519089	29.1816250	-81.0454615	-16.5321503	29.1816284	-81.0454684	-16.5709991	-0.0400000	-0.2110000	-0.0290000	0.3600000	-0.3600000	9.9799995	-0.0000000	0.0000000	-0.0000000	-27.7500000	-17.7500000	31.8750000	62.0277252	8145.0000000	8147.0000000	31.1800003	8124.0000000	8128.0000000	-0.5974742	3.6026602
413339425.0000000	19700.0000000	-0.0179619	-0.2142484	-0.0290000	1.5206683	3.3191571	3.6300011	-1.0795075	2.4034150	124.9632416	29.1816284	-81.0454684	-16.5709991	-0.0524420	-0.2453671	-0.0772474	0.3507375	0.0672929	16.5322838	-2.4375000	-2.0625000	36.2554626	29.1816250	-81.0454615	-16.5322838	29.1816284	-81.0454684	-16.5709991	-0.0400000	-0.2110000	-0.0290000	0.3700000	-0.3700000	10.0600004	-0.0000000	-0.1250000	-0.0625000	-28.1875000	-18.5000000	31.8750000	41.7380257	8148.0000000	8147.0000000	33.6599998	8130.0000000	8123.0000000	0.0728466	-0.7166554
413339450.0000000	19725.0000000	-0.0179619	-0.2142484	-0.0290000	1.5206683	3.3191571	3.6300011	-1.0796196	2.4021797	124.9609451	29.1816284	-81.0454684	-16.5709991	-0.0528324	-0.2558022	-0.0797940	0.3507278	0.0670321	16.5323467	-2.4375000	-2.0625000	36.2554626	29.1816250	-81.0454615	-16.5323467	29.1816284	-81.0454684	-16.5709991	-0.0400000	-0.2110000	-0.0290000	0.3800000	-0.3600000	9.9499998	-0.0625000	0.0000000	-0.1250000	-28.1875000	-18.5000000	31.8750000	28.4059258	8145.0000000	8141.0000000	32.4000015	8130.0000000	8131.0000000	-0.0718181	0.7042971
413339475.0000000	19750.0000000	-0.0179619	-0.2142484	-0.0290000	1.5206683	3.3191571	3.6300011	-1.0797662	2.4032729	124.9578171	29.1816284	-81.0454684	-16.5709991	-0.0535327	-0.2659139	-0.0851190	0.3507103	0.0667793	16.5324802	-2.4375000	-2.0625000	35.1232147	29.1816250	-81.0454615	-16.5324802	29.1816284	-81.0454684	-16.5709991	-0.0400000	-0.2110000	-0.0290000	0.3500000	-0.3600000	10.0600004	-0.0000000	0.0625000	-0.1250000	-28.5625000	-18.0625000	30.2500000	-55.6485672	8145.0000000	8144.0000000	33.7799988	8133.0000000	8128.0000000	-0.3162757	3.6392341
413339500.0000000	19775.0000000	-0.0160404	-0.1913288	-0.0220000	1.5206683	3.3191571	3.6210003	-1.0797490	2.4044402	124.9586105	29.1816284	-81.0454684	-16.5799999	-0.0411147	-0.2416762	-0.0619899	0.3533580	0.0619994	16.5515404	-2.4375000	-2.0625000	35.1232147	29.1816250	-81.0454615	-16.5515404	29.1816284	-81.0454684	-16.5799999	-0.0230000	-0.1900000	-0.0220000	0.3900000	-0.3400000	9.9899998	-0.0625000	0.0000000	0.1875000	-28.5625000	-18.0625000	30.2500000	45.7999268	8148.0000000	8144.0000000	33.7799988	8133.0000000	8128.0000000	0.0799359	-0.7183108
413339525.0000000	19800.0000000	-0.0160404	-0.1913288	-0.0220000	1.5206683	3.3191571	3.6210003	-1.0769206	2.4047272	124.9622726	29.1816284	-81.0454684	-16.5799999	-0.0414326	-0.2521159	-0.0685387	0.3533501	0.0617384	16.5517044	-2.4375000	-2.0625000	35.5244598	29.1816250	-81.0454615	-16.5517044	29.1816284	-81.0454684	-16.5799999	-0.0230000	-0.1900000	-0.0220000	0.3700000	-0.3600000	10.1099997	-0.0000000	0.0000000	0.1250000	-27.7500000	-17.7500000	30.5625000	36.6465645	8145.0000000	8136.0000000	34.6399994	8136.0000000	8128.0000000	-0.0788323	0.7059310
413339550.0000000	19825.0000000	-0.0160404	-0.1913288	-0.0220000	1.5206683	3.3191571	3.6210003	-1.0768663	2.4051275	124.9638596	29.1816284	-81.0454684	-16.5799999	-0.0418184	-0.2627781	-0.0715761	0.3533404	0.0614719	16.5517807	-2.4375000	-2.0625000	35.5244598	29.1816250	-81.0454615	-16.5517807	29.1816284	-81.0454684	-16.5799999	-0.0230000	-0.1900000	-0.0220000	0.3800000	-0.3700000	9.9700003	-0.0625000	0.0000000	-0.0000000	-27.7500000	-17.7500000	30.5625000	62.0277252	8145.0000000	8147.0000000	30.5799999	8124.0000000	8131.0000000	-0.3411228	3.6459160
413339575.0000000	19850.0000000	-0.0160404	-0.1913288	-0.0220000	1.5206683	3.3191571	3.6210003	-1.0752810	2.4047318	124.9646759	29.1816284	-81.0454684	-16.5799999	-0.0418449	-0.2731314	-0.0773671	0.3533398	0.0612131	16.5519257	-2.4375000	-2.0625000	35.6939850	29.1816250	-81.0454615	-16.5519257	29.1816284	-81.0454684	-16.5799999	-0.0230000	-0.1900000	-0.0220000	0.3800000	-0.3500000	10.0799999	0.1250000	-0.0625000	0.0625000	-27.0625000	-17.3750000	30.5625000	62.0277252	8145.0000000	8147.0000000	30.5799999	8124.0000000	8131.0000000	0.1082588	-0.7181474
413339600.0000000	19875.0000000	-0.0163745	-0.1953148	-0.0260000	1.5206683	3.3191571	3.6930008	-1.0736973	2.4058986	124.9654541	29.1816284	-81.0454684	-16.5079994	-0.0435660	-0.2464476	-0.0590968	0.3559809	0.0564322	16.5344124	-2.4375000	-2.0625000	35.6939850	29.1816250	-81.0454615	-16.5344124	29.1816284	-81.0454684	-16.5079994	-0.0460000	-0.1910000	-0.0260000	0.3800000	-0.3500000	10.0000000	-0.0625000	0.1250000	-0.0000000	-27.0625000	-17.3750000	30.5625000	-55.6485672	8145.0000000	8144.0000000	33.3800011	8130.0000000	8125.0000000	-0.1066052	0.7053245
413339625.0000000	19900.0000000	-0.0163745	-0.1953148	-0.0260000	1.5206683	3.3191571	3.6930008	-1.0711597	2.4077787	124.9652100	29.1816284	-81.0454684	-16.5079994	-0.0435022	-0.2567938	-0.0646346	0.3559825	0.0561735	16.5345516	-2.4375000	-2.0625000	35.1328888	29.1816250	-81.0454615	-16.5345516	29.1816284	-81.0454684	-16.5079994	-0.0460000	-0.1910000	-0.0260000	0.3800000	-0.3500000	10.0699997	-0.0000000	0.0000000	-0.0000000	-28.1875000	-17.7500000	31.0625000	4.2515221	8140.0000000	8141.0000000	31.1800003	8124.0000000	8128.0000000	-0.5002590	3.7503352
413339650.0000000	19925.0000000	-0.0163745	-0.1953148	-0.0260000	1.5206683	3.3191571	3.6930008	-1.0711993	2.4073536	124.9644623	29.1816284	-81.0454684	-16.5079994	-0.0442156	-0.2671815	-0.0679457	0.3559646	0.0559138	16.5346336	-2.4375000	-2.0625000	35.1328888	29.1816250	-81.0454615	-16.5346336	29.1816284	-81.0454684	-16.5079994	-0.0460000	-0.1910000	-0.0260000	0.3600000	-0.3700000	9.9799995	-0.0625000	-0.0625000	-0.0625000	-28.1875000	-17.7500000	31.0625000	-55.6485672	8145.0000000	8144.0000000	33.7599983	8136.0000000	8134.0000000	-0.0971250	-0.7186120
413339675.0000000	19950.0000000	-0.0163745	-0.1953148	-0.0260000	1.5206683	3.3191571	3.6930008	-1.0720215	2.4084909	124.9636841	29.1816284	-81.0454684	-16.5079994	-0.0443320	-0.2775147	-0.0732402	0.3559617	0.0556555	16.5347652	-2.4375000	-2.0625000	36.1012878	29.1816250	-81.0454615	-16.5347652	29.1816284	-81.0454684	-16.5079994	-0.0460000	-0.1910000	-0.0260000	0.3800000	-0.3500000	10.0600004	-0.0625000	0.1250000	-0.0000000	-28.1875000	-18.5000000	30.2500000	42.8985672	8148.0000000	8141.0000000	33.7799988	8133.0000000	8128.0000000	0.0953696	0.7062603
413339700.0000000	19975.0000000	-0.0060987	-0.0727448	-0.0330000	1.5206683	3.3191571	3.8090000	-1.0728769	2.4103944	124.9621124	29.1816284	-81.0454684	-16.3920002	-0.0166208	-0.2000092	-0.0588273	0.3585938	0.0508714	16.4777012	-2.4375000	-2.0625000	36.1012878	29.1816250	-81.0454615	-16.4777012	29.1816284	-81.0454684	-16.3920002	0.0260000	-0.0680000	-0.0330000	0.3700000	-0.3700000	9.9600000	-0.0625000	0.0000000	-0.1250000	-28.1875000	-18.5000000	30.2500000	147.2484283	8151.0000000	8144.0000000	34.8199997	8133.0000000	8120.0000000	0.5130890	3.6407361
413339725.0000000	20000.0000000	-0.0060987	-0.0727448	-0.0330000	1.5206683	3.3191571	3.8090000	-1.0728540	2.4107752	124.9603195	29.1816284	-81.0454684	-16.3920002	-0.0167615	-0.2105494	-0.0641139	0.3585902	0.0506079	16.4778328	-2.4375000	-2.0625000	35.4194298	29.1816250	-81.0454615	-16.4778328	29.1816284	-81.0454684	-16.3920002	0.0260000	-0.0680000	-0.0330000	0.3800000	-0.3600000	10.0600004	-0.1875000	0.0000000	-0.0000000	-27.3750000	-17.3750000	31.0625000	28.4059258	8145.0000000	8141.0000000	32.0400009	8127.0000000	8128.0000000	0.0495777	-0.7120857
413339750.0000000	20025.0000000	-0.0060987	-0.0727448	-0.0330000	1.5206683	3.3191571	3.8090000	-1.0744188	2.4095833	124.9603729	29.1816284	-81.0454684	-16.3920002	-0.0164222	-0.2211027	-0.0673801	0.3585987	0.0503440	16.4779148	-2.4375000	-2.0625000	35.4194298	29.1816250	-81.0454615	-16.4779148	29.1816284	-81.0454684	-16.3920002	0.0260000	-0.0680000	-0.0330000	0.4000000	-0.3500000	9.9799995	-0.0000000	-0.1250000	-0.0000000	-27.3750000	-17.3750000	31.0625000	147.2484283	8151.0000000	8144.0000000	32.8600006	8127.0000000	8123.0000000	-0.0489724	0.6997256
413339775.0000000	20050.0000000	-0.0060987	-0.0727448	-0.0330000	1.5206683	3.3191571	3.8090000	-1.0736395	2.4076107	124.9604416	29.1816284	-81.0454684	-16.3920002	-0.0165691	-0.2316687	-0.0734167	0.3585951	0.0500799	16.4780655	-2.4375000	-2.0625000	35.6033478	29.1816250	-81.0454615	-16.4780655	29.1816284	-81.0454684	-16.3920002	0.0260000	-0.0680000	-0.0330000	0.3800000	-0.3600000	10.0900002	-0.0000000	-0.0625000	-0.0000000	-27.7500000	-17.7500000	31.3750000	45.7999268	8148.0000000	8144.0000000	32.9199982	8130.0000000	8128.0000000	-0.1919733	3.6350336
413339800.0000000	20075.0000000	-0.0042607	-0.0508217	-0.0350000	1.5206683	3.9829886	3.9370003	-1.0728943	2.4071858	124.9596939	29.1816284	-81.0454615	-16.2639999	-0.0102217	-0.1649208	-0.0601805	0.3612407	0.0499319	16.3924923	-2.4375000	-2.0625000	35.6033478	29.1816250	-81.0454615	-16.3924923	29.1816284	-81.0454615	-16.2639999	-0.0010000	-0.0500000	-0.0350000	0.3800000	-0.3300000	9.9899998	-0.0000000	0.0000000	-0.0625000	-27.7500000	-17.7500000	31.3750000	41.7380257	8148.0000000	8147.0000000	33.7799988	8133.0000000	8128.0000000	0.0728466	-0.7017883
413339825.0000000	20100.0000000	-0.0042607	-0.0508217	-0.0350000	1.5206683	3.9829886	3.9370003	-1.0700978	2.4085317	124.9592972	29.1816284	-81.0454615	-16.2639999	-0.0101323	-0.1749205	-0.0657321	0.3612429	0.0496819	16.3926315	-2.4375000	-2.0625000	34.6277618	29.1816250	-81.0454615	-16.3926315	29.1816284	-81.0454615	-16.2639999	-0.0010000	-0.0500000	-0.0350000	0.3700000	-0.3400000	10.0699997	-0.1250000	-0.0625000	0.0625000	-27.7500000	-17.0625000	31.5000000	42.1072884	8148.0000000	8150.0000000	33.7799988	8133.0000000	8128.0000000	-0.0719289	0.6894829
413339850.0000000	20125.0000000	-0.0042607	-0.0508217	-0.0350000	1.5206683	3.9829886	3.9370003	-1.0715600	2.4081669	124.9616699	29.1816284	-81.0454615	-16.2639999	-0.0102201	-0.1853746	-0.0685173	0.3612407	0.0494205	16.3927021	-2.4375000	-2.0625000	34.6277618	29.1816250	-81.0454615	-16.3927021	29.1816284	-81.0454615	-16.2639999	-0.0010000	-0.0500000	-0.0350000	0.3800000	-0.3600000	9.9600000	-0.0625000	0.0000000	0.1250000	-27.7500000	-17.0625000	31.5000000	4.2515221	8140.0000000	8141.0000000	35.5800018	8136.0000000	8120.0000000	-0.2900011	3.6117258
413339875.0000000	20150.0000000	-0.0042607	-0.0508217	-0.0350000	1.5206683	3.9829886	3.9370003	-1.0715251	2.4077737	124.9624939	29.1816284	-81.0454615	-16.2639999	-0.0106760	-0.1958994	-0.0738159	0.3612293	0.0491574	16.3928337	-2.4375000	-2.0625000	37.1684914	29.1816250	-81.0454615	-16.3928337	29.1816284	-81.0454615	-16.2639999	-0.0010000	-0.0500000	-0.0350000	0.3800000	-0.3600000	10.0600004	-0.0000000	-0.0625000	-0.0625000	-27.7500000	-18.8750000	31.3750000	18.7441635	8143.0000000	8141.0000000	33.6599998	8130.0000000	8123.0000000	0.0327148	-0.6881597
413339900.0000000	20175.0000000	-0.0026734	-0.0318881	-0.0330000	1.5206683	3.9829886	4.0219994	-1.0692459	2.4081166	124.9609451	29.1816284	-81.0454615	-16.1790009	-0.0077613	-0.1364306	-0.0594868	0.3638580	0.0490052	16.3073502	-2.4375000	-2.0625000	37.1684914	29.1816250	-81.0454615	-16.3073502	29.1816284	-81.0454615	-16.1790009	-0.0020000	-0.0320000	-0.0330000	0.3600000	-0.3600000	9.9799995	0.1250000	0.0625000	-0.0625000	-27.7500000	-18.8750000	31.3750000	18.7441635	8143.0000000	8141.0000000	32.9199982	8130.0000000	8128.0000000	-0.0323809	0.6746852
413339925.0000000	20200.0000000	-0.0026734	-0.0318881	-0.0330000	1.5206683	3.9829886	4.0219994	-1.0641102	2.4087839	124.9597702	29.1816284	-81.0454615	-16.1790009	-0.0080845	-0.1470315	-0.0645271	0.3638499	0.0487401	16.3074760	-2.4375000	-2.0625000	34.4560547	29.1816250	-81.0454615	-16.3074760	29.1816284	-81.0454615	-16.1790009	-0.0020000	-0.0320000	-0.0330000	0.3700000	-0.3700000	10.0500002	-0.0625000	-0.1875000	-0.0000000	-27.7500000	-17.0625000	29.7500000	28.4059258	8145.0000000	8141.0000000	31.4799995	8127.0000000	8131.0000000	-0.1118131	3.8737426
413339950.0000000	20225.0000000	-0.0026734	-0.0318881	-0.0330000	1.5206683	3.9829886	4.0219994	-1.0625066	2.4068303	124.9606094	29.1816284	-81.0454615	-16.1790009	-0.0077851	-0.1574299	-0.0675510	0.3638574	0.0484802	16.3075523	-2.4375000	-2.0625000	34.4560547	29.1816250	-81.0454615	-16.3075523	29.1816284	-81.0454615	-16.1790009	-0.0020000	-0.0320000	-0.0330000	0.3900000	-0.3500000	9.9700003	0.1250000	0.0000000	0.0625000	-27.7500000	-17.0625000	29.7500000	41.7380257	8148.0000000	8147.0000000	32.9199982	8130.0000000	8128.0000000	0.0728466	-0.6748397
413339975.0000000	20250.0000000	-0.0026734	-0.0318881	-0.0330000	1.5206683	3.9829886	4.0219994	-1.0600902	2.4064531	124.9622040	29.1816284	-81.0454615	-16.1790009	-0.0079212	-0.1675479	-0.0726051	0.3638540	0.0482272	16.3076782	-2.4375000	-2.0625000	37.0131798	29.1816250	-81.0454615	-16.3076782	29.1816284	-81.0454615	-16.1790009	-0.0020000	-0.0320000	-0.0330000	0.3800000	-0.3400000	10.0500002	-0.0000000	-0.0625000	0.0625000	-27.3750000	-18.5000000	31.0625000	42.8985672	8148.0000000	8141.0000000	33.3199997	8133.0000000	8131.0000000	-0.0719126	0.6629443
413340000.0000000	20275.0000000	-0.0026734	-0.0318881	-0.0330000	1.5206683	3.9829886	4.0219994	-1.0600520	2.4084053	124.9629822	29.1816284	-81.0454615	-16.1790009	-0.0078897	-0.1780849	-0.0753824	0.3638548	0.0479638	16.3077469	-2.4375000	-2.0625000	37.0131798	29.1816250	-81.0454615	-16.3077469	29.1816284	-81.0454615	-16.1790009	-0.0020000	-0.0320000	-0.0330000	0.4000000	-0.3500000	9.9600000	-0.0625000	0.1875000	-0.0000000	-27.3750000	-18.5000000	31.0625000	62.0277252	8145.0000000	8147.0000000	33.7799988	8133.0000000	8128.0000000	-0.2938496	3.4877396
413340000.0000000	20300.0000000	-0.0054303	-0.0647728	-0.0310000	1.5206683	3.9829886	4.0930004	-1.0608290	2.4111233	124.9629593	29.1816284	-81.0454615	-16.1079998	-0.0137987	-0.1374465	-0.0609635	0.3664908	0.0478089	16.2279320	-2.4375000	-2.0625000	37.9920387	29.1816250	-81.0454615	-16.2279320	29.1816284	-81.0454615	-16.1079998	-0.0220000	-0.0610000	-0.0310000	0.3800000	-0.3500000	10.0699997	-0.0625000	0.0000000	-0.0000000	-27.3750000	-19.2500000	30.5625000	28.4059258	8145.0000000	8141.0000000	33.7599983	8136.0000000	8134.0000000	0.0495777	-0.6650462
413340025.0000000	20325.0000000	-0.0054303	-0.0647728	-0.0310000	1.5206683	3.9829886	4.0930004	-1.0588757	2.4142063	124.9617538	29.1816284	-81.0454615	-16.1079998	-0.0148525	-0.1479054	-0.0635329	0.3664644	0.0475474	16.2279968	-2.4375000	-2.0625000	37.9920387	29.1816250	-81.0454615	-16.2279968	29.1816284	-81.0454615	-16.1079998	-0.0220000	-0.0610000	-0.0310000	0.3700000	-0.3700000	9.9499998	-0.1250000	0.0625000	-0.0625000	-27.3750000	-19.2500000	30.5625000	28.4059258	8145.0000000	8141.0000000	33.3800011	8130.0000000	8125.0000000	-0.0490620	0.6531850
413340050.0000000	20350.0000000	-0.0054303	-0.0647728	-0.0310000	1.5206683	3.9829886	4.0930004	-1.0604604	2.4153502	124.9609909	29.1816284	-81.0454615	-16.1079998	-0.0143608	-0.1583730	-0.0685495	0.3664767	0.0472857	16.2281227	-2.4375000	-2.0625000	33.7853317	29.1816250	-81.0454615	-16.2281227	29.1816284	-81.0454615	-16.1079998	-0.0220000	-0.0610000	-0.0310000	0.3900000	-0.3500000	10.0500002	-0.0625000	0.0000000	-0.0000000	-28.5625000	-17.0625000	31.0625000	62.0277252	8145.0000000	8147.0000000	31.7199993	8124.0000000	8125.0000000	-0.1716643	3.4698510
413340075.0000000	20375.0000000	-0.0054303	-0.0647728	-0.0310000	1.5206683	3.9829886	4.0930004	-1.0612308	2.4165089	124.9609909	29.1816284	-81.0454615	-16.1079998	-0.0142279	-0.1691756	-0.0713119	0.3664800	0.0470157	16.2281914	-2.4375000	-2.0625000	33.7853317	29.1816250	-81.0454615	-16.2281914	29.1816284	-81.0454615	-16.1079998	-0.0220000	-0.0610000	-0.0310000	0.3900000	-0.3700000	9.9600000	-0.0625000	0.0625000	-0.0000000	-28.5625000	-17.0625000	31.0625000	62.0277252	8145.0000000	8147.0000000	32.0400009	8127.0000000	8128.0000000	0.1082588	-0.6647599
413340100.0000000	20400.0000000	-0.0054303	-0.0647728	-0.0310000	1.5206683	3.9829886	4.0930004	-1.0611882	2.4192448	124.9617386	29.1816284	-81.0454615	-16.1079998	-0.0146875	-0.1793618	-0.0768753	0.3664685	0.0467610	16.2283306	-2.4375000	-2.0625000	36.9647636	29.1816250	-81.0454615	-16.2283306	29.1816284	-81.0454615	-16.1079998	-0.0220000	-0.0610000	-0.0310000	0.3700000	-0.3500000	10.0699997	-0.0000000	0.1250000	0.0625000	-27.3750000	-18.5000000	30.5625000	51.3298798	8145.0000000	8150.0000000	32.0400009	8127.0000000	8128.0000000	-0.1067337	0.6530654
413340125.0000000	20425.0000000	-0.0054303	-0.0647728	-0.0310000	1.5206683	3.9829886	4.0930004	-1.0596159	2.4211848	124.9617310	29.1816284	-81.0454615	-16.1079998	-0.0148333	-0.1894621	-0.0814298	0.3664649	0.0465085	16.2284451	-2.4375000	-2.0625000	36.9647636	29.1816250	-81.0454615	-16.2284451	29.1816284	-81.0454615	-16.1079998	-0.0220000	-0.0610000	-0.0310000	0.3800000	-0.3400000	10.0299997	0.0625000	0.0000000	-0.0625000	-27.3750000	-18.5000000	30.5625000	-123.2808990	8143.0000000	8144.0000000	33.7799988	8133.0000000	8128.0000000	-0.4691969	3.4302683
413340150.0000000	20450.0000000	-0.0054303	-0.0647728	-0.0310000	1.5206683	3.9829886	4.0930004	-1.0580413	2.4207811	124.9617691	29.1816284	-81.0454615	-16.1079998	-0.0148301	-0.1994603	-0.0869846	0.3664650	0.0462586	16.2285843	-2.4375000	-2.0625000	35.1328888	29.1816250	-81.0454615	-16.2285843	29.1816284	-81.0454615	-16.1079998	-0.0220000	-0.0610000	-0.0310000	0.3700000	-0.3400000	10.0699997	-0.0000000	-0.0625000	0.0625000	-28.1875000	-17.7500000	31.0625000	45.7999268	8148.0000000	8144.0000000	33.3800011	8130.0000000	8125.0000000	0.0799360	-0.6660759
413340200.0000000	20475.0000000	-0.0096075	-0.1145980	-0.0350000	1.5206683	3.9829886	4.1970005	-1.0588115	2.4219406	124.9617844	29.1816284	-81.0454615	-16.0039997	-0.0052383	-0.1716965	-0.0677183	0.3691091	0.0461080	16.1387882	-2.4375000	-2.0625000	35.1328888	29.1816250	-81.0454615	-16.1387882	29.1816284	-81.0454615	-16.0039997	0.0090000	-0.1150000	-0.0350000	0.3800000	-0.3400000	9.9499998	-0.1250000	0.1250000	-0.0625000	-28.1875000	-17.7500000	31.0625000	42.1072884	8148.0000000	8150.0000000	32.0400009	8127.0000000	8128.0000000	-0.0787729	0.6537628
413340225.0000000	20500.0000000	-0.0096075	-0.1145980	-0.0350000	1.5206683	3.9829886	4.1970005	-1.0568154	2.4273343	124.9621124	29.1816284	-81.0454615	-16.0039997	-0.0048818	-0.1816152	-0.0727631	0.3691180	0.0458601	16.1389141	-2.4375000	-2.0625000	34.9960747	29.1816250	-81.0454615	-16.1389141	29.1816284	-81.0454615	-16.0039997	0.0090000	-0.1150000	-0.0350000	0.3800000	-0.3300000	10.0500002	-0.0625000	0.1250000	0.1250000	-27.3750000	-17.0625000	31.3750000	45.7999268	8148.0000000	8144.0000000	32.9199982	8130.0000000	8128.0000000	-0.3551050	3.5774894
413340250.0000000	20525.0000000	-0.0096075	-0.1145980	-0.0350000	1.5206683	3.9829886	4.1970005	-1.0551735	2.4316490	124.9636154	29.1816284	-81.0454615	-16.0039997	-0.0053660	-0.1921477	-0.0760598	0.3691059	0.0455968	16.1389961	-2.4375000	-2.0625000	34.9960747	29.1816250	-81.0454615	-16.1389961	29.1816284	-81.0454615	-16.0039997	0.0090000	-0.1150000	-0.0350000	0.3700000	-0.3700000	9.9799995	0.1250000	0.1875000	-0.0000000	-27.3750000	-17.0625000	31.3750000	28.4059258	8145.0000000	8141.0000000	32.0400009	8127.0000000	8128.0000000	0.0495777	-0.6678280
413340275.0000000	20550.0000000	-0.0096075	-0.1145980	-0.0350000	1.5206683	3.9829886	4.1970005	-1.0544109	2.4343581	124.9628220	29.1816284	-81.0454615	-16.0039997	-0.0059848	-0.2017067	-0.0814054	0.3690904	0.0453578	16.1391296	-2.4375000	-2.0625000	35.1328888	29.1816250	-81.0454615	-16.1391296	29.1816284	-81.0454615	-16.0039997	0.0090000	-0.1150000	-0.0350000	0.3400000	-0.3400000	10.0600004	-0.1250000	0.0000000	-0.0625000	-28.1875000	-17.7500000	31.0625000	41.7380257	8148.0000000	8147.0000000	33.3800011	8130.0000000	8125.0000000	-0.0489881	0.6561522
413340300.0000000	20575.0000000	-0.0108607	-0.1295455	-0.0360000	1.5206683	3.9829886	4.2449999	-1.0552424	2.4347093	124.9612732	29.1816284	-81.0454615	-15.9560003	-0.0112012	-0.1787832	-0.0652180	0.3717327	0.0452038	16.0659275	-2.4375000	-2.0625000	35.1328888	29.1816250	-81.0454615	-16.0659275	29.1816284	-81.0454615	-15.9560003	-0.0190000	-0.1290000	-0.0360000	0.3800000	-0.3500000	9.9799995	-0.0000000	0.0000000	-0.0625000	-28.1875000	-17.7500000	31.0625000	-123.2808990	8143.0000000	8144.0000000	32.9199982	8130.0000000	8128.0000000	-0.1890928	3.4293633
413340325.0000000	20600.0000000	-0.0108607	-0.1295455	-0.0360000	1.5206683	3.9829886	4.2449999	-1.0526736	2.4384995	124.9608841	29.1816284	-81.0454615	-15.9560003	-0.0118635	-0.1895761	-0.0702623	0.3717162	0.0449340	16.0660534	-2.4375000	-2.0625000	35.5244598	29.1816250	-81.0454615	-16.0660534	29.1816284	-81.0454615	-15.9560003	-0.0190000	-0.1290000	-0.0360000	0.3700000	-0.3800000	10.0500002	-0.1250000	0.1250000	0.0625000	-27.7500000	-17.7500000	30.5625000	28.4059258	8145.0000000	8141.0000000	34.2000008	8133.0000000	8125.0000000	0.0495777	-0.6686280
413340350.0000000	20625.0000000	-0.0108607	-0.1295455	-0.0360000	1.5206683	3.9829886	4.2449999	-1.0549310	2.4404728	124.9624405	29.1816284	-81.0454615	-15.9560003	-0.0122984	-0.1998989	-0.0735662	0.3717053	0.0446759	16.0661354	-2.4375000	-2.0625000	35.5244598	29.1816250	-81.0454615	-16.0661354	29.1816284	-81.0454615	-15.9560003	-0.0190000	-0.1290000	-0.0360000	0.3700000	-0.3600000	9.9799995	-0.1250000	0.0000000	0.0625000	-27.7500000	-17.7500000	30.5625000	42.6753883	8148.0000000	8138.0000000	32.7999992	8133.0000000	8134.0000000	-0.0489895	0.6569109
413340375.0000000	20650.0000000	-0.0108607	-0.1295455	-0.0360000	1.5206683	3.9829886	4.2449999	-1.0549101	2.4408557	124.9624634	29.1816284	-81.0454615	-15.9560003	-0.0126605	-0.2100828	-0.0788759	0.3716962	0.0444213	16.0662689	-2.4375000	-2.0625000	36.3523483	29.1816250	-81.0454615	-16.0662689	29.1816284	-81.0454615	-15.9560003	-0.0190000	-0.1290000	-0.0360000	0.3700000	-0.3500000	10.0600004	0.0625000	0.0000000	-0.0625000	-27.3750000	-18.0625000	30.5625000	28.4059258	8145.0000000	8141.0000000	33.3199997	8133.0000000	8131.0000000	-0.1886940	3.4394531
413340400.0000000	20675.0000000	-0.0091062	-0.1086189	-0.0290000	1.5206683	3.9829886	4.2540007	-1.0533930	2.4412096	124.9609070	29.1816284	-81.0454615	-15.9469995	-0.0331720	-0.1676337	-0.0610711	0.3743294	0.0442717	16.0186157	-2.4375000	-2.0625000	36.3523483	29.1816250	-81.0454615	-16.0186157	29.1816284	-81.0454615	-15.9469995	-0.0630000	-0.0890000	-0.0290000	0.3600000	-0.3500000	9.9899998	-0.0000000	0.0000000	-0.0625000	-27.3750000	-18.0625000	30.5625000	62.0277252	8145.0000000	8147.0000000	31.4799995	8127.0000000	8131.0000000	0.1082588	-0.6730161
413340425.0000000	20700.0000000	-0.0091062	-0.1086189	-0.0290000	1.5206683	3.9829886	4.2540007	-1.0500457	2.4458847	124.9597321	29.1816284	-81.0454615	-15.9469995	-0.0335573	-0.1779462	-0.0661259	0.3743198	0.0440139	16.0187416	-2.4375000	-2.0625000	37.5721550	29.1816250	-81.0454615	-16.0187416	29.1816284	-81.0454615	-15.9469995	-0.0630000	-0.0890000	-0.0290000	0.3800000	-0.3500000	10.0500002	-0.0625000	0.1875000	-0.0000000	-27.3750000	-18.8750000	31.5000000	28.4059258	8145.0000000	8141.0000000	32.0400009	8127.0000000	8128.0000000	-0.1067443	0.6611847
413340450.0000000	20725.0000000	-0.0091062	-0.1086189	-0.0290000	1.5206683	3.9829886	4.2540007	-1.0508032	2.4486132	124.9597092	29.1816284	-81.0454615	-15.9469995	-0.0341855	-0.1880618	-0.0699462	0.3743041	0.0437610	16.0188370	-2.4375000	-2.0625000	37.5721550	29.1816250	-81.0454615	-16.0188370	29.1816284	-81.0454615	-15.9469995	-0.0630000	-0.0890000	-0.0290000	0.3700000	-0.3500000	10.0000000	-0.0625000	0.0000000	-0.0000000	-27.3750000	-18.8750000	31.5000000	42.1072884	8148.0000000	8150.0000000	32.0400009	8127.0000000	8128.0000000	-0.4668126	3.4708605
413340475.0000000	20750.0000000	-0.0091062	-0.1086189	-0.0290000	1.5206683	3.9829886	4.2540007	-1.0508103	2.4482028	124.9589539	29.1816284	-81.0454615	-15.9469995	-0.0343705	-0.1979172	-0.0755138	0.3742995	0.0435146	16.0189762	-2.4375000	-2.0625000	35.0369759	29.1816250	-81.0454615	-16.0189762	29.1816284	-81.0454615	-15.9469995	-0.0630000	-0.0890000	-0.0290000	0.3600000	-0.3400000	10.0699997	-0.0000000	-0.0625000	-0.0625000	-27.7500000	-17.3750000	31.0625000	45.7999268	8148.0000000	8144.0000000	32.4000015	8130.0000000	8131.0000000	0.0799360	-0.6837155
413340500.0000000	20775.0000000	-0.0030911	-0.0368707	-0.0340000	1.5206683	3.9829886	4.2690001	-1.0500349	2.4462306	124.9582291	29.1816284	-81.0454615	-15.9320002	-0.0283927	-0.1374043	-0.0606014	0.3769378	0.0433683	15.9842281	-2.4375000	-2.0625000	35.0369759	29.1816250	-81.0454615	-15.9842281	29.1816284	-81.0454615	-15.9320002	-0.0190000	-0.0320000	-0.0340000	0.3600000	-0.3400000	9.9600000	-0.0000000	-0.1250000	-0.0000000	-27.7500000	-17.3750000	31.0625000	45.7999268	8148.0000000	8144.0000000	32.9199982	8130.0000000	8128.0000000	-0.0787269	0.6703733
413340525.0000000	20800.0000000	-0.0030911	-0.0368707	-0.0340000	1.5206683	3.9829886	4.2690001	-1.0474384	2.4470928	124.9594879	29.1816284	-81.0454615	-15.9320002	-0.0288138	-0.1474506	-0.0659191	0.3769273	0.0431171	15.9843607	-2.4375000	-2.0625000	35.5244598	29.1816250	-81.0454615	-15.9843607	29.1816284	-81.0454615	-15.9320002	-0.0190000	-0.0320000	-0.0340000	0.3600000	-0.3500000	10.0600004	-0.1250000	0.0000000	0.1250000	-27.7500000	-17.7500000	30.5625000	45.7999268	8148.0000000	8144.0000000	32.9199982	8130.0000000	8128.0000000	-0.3659771	3.8379612
413340550.0000000	20825.0000000	-0.0030911	-0.0368707	-0.0340000	1.5206683	3.9829886	4.2690001	-1.0481907	2.4490433	124.9594727	29.1816284	-81.0454615	-15.9320002	-0.0291036	-0.1575698	-0.0692264	0.3769201	0.0428641	15.9844437	-2.4375000	-2.0625000	35.5244598	29.1816250	-81.0454615	-15.9844437	29.1816284	-81.0454615	-15.9320002	-0.0190000	-0.0320000	-0.0340000	0.3700000	-0.3500000	9.9799995	-0.0000000	0.1250000	-0.1250000	-27.7500000	-17.7500000	30.5625000	42.8985672	8148.0000000	8141.0000000	33.7799988	8133.0000000	8128.0000000	0.0748722	-0.6932073
413340575.0000000	20850.0000000	-0.0030911	-0.0368707	-0.0340000	1.5206683	3.9829886	4.2690001	-1.0482607	2.4493880	124.9571381	29.1816284	-81.0454615	-15.9320002	-0.0291343	-0.1685516	-0.0749909	0.3769193	0.0425896	15.9845877	-2.4375000	-2.0625000	33.3858223	29.1816250	-81.0454615	-15.9845877	29.1816284	-81.0454615	-15.9320002	-0.0190000	-0.0320000	-0.0340000	0.3800000	-0.3800000	10.0799999	-0.0625000	-0.1250000	-0.0625000	-27.7500000	-16.2500000	31.0625000	45.7999268	8148.0000000	8144.0000000	31.5400009	8122.0000000	8123.0000000	-0.0739235	0.6810188
413340600.0000000	20875.0000000	-0.0063493	-0.0757343	-0.0320000	1.5206683	3.9829886	4.2930002	-1.0482633	2.4489801	124.9563980	29.1816284	-81.0454615	-15.9080000	-0.0195613	-0.1375202	-0.0596289	0.3795599	0.0424399	15.9539986	-2.4375000	-2.0625000	33.3858223	29.1816250	-81.0454615	-15.9539986	29.1816284	-81.0454615	-15.9080000	-0.0050000	-0.0760000	-0.0320000	0.3600000	-0.3500000	9.9700003	-0.0000000	0.0625000	-0.0000000	-27.7500000	-16.2500000	31.0625000	42.8985672	8148.0000000	8141.0000000	32.0400009	8127.0000000	8128.0000000	-0.2994521	3.5761852
413340625.0000000	20900.0000000	-0.0063493	-0.0757343	-0.0320000	1.5206683	3.9829886	4.2930002	-1.0443382	2.4529171	124.9560471	29.1816284	-81.0454615	-15.9080000	-0.0199146	-0.1479070	-0.0646794	0.3795511	0.0421802	15.9541245	-2.4375000	-2.0625000	35.4194298	29.1816250	-81.0454615	-15.9541245	29.1816284	-81.0454615	-15.9080000	-0.0050000	-0.0760000	-0.0320000	0.3700000	-0.3600000	10.0500002	-0.0000000	0.0625000	-0.0000000	-27.3750000	-17.3750000	31.0625000	41.7380257	8148.0000000	8147.0000000	34.8199997	8133.0000000	8120.0000000	0.0728466	-0.6996843
413340650.0000000	20925.0000000	-0.0063493	-0.0757343	-0.0320000	1.5206683	3.9829886	4.2930002	-1.0435237	2.4548700	124.9560318	29.1816284	-81.0454615	-15.9080000	-0.0202541	-0.1585971	-0.0684648	0.3795426	0.0419130	15.9542189	-2.4375000	-2.0625000	35.4194298	29.1816250	-81.0454615	-15.9542189	29.1816284	-81.0454615	-15.9080000	-0.0050000	-0.0760000	-0.0320000	0.3800000	-0.3700000	10.0000000	-0.0000000	0.0625000	-0.0000000	-27.3750000	-17.3750000	31.0625000	28.4059258	8145.0000000	8141.0000000	33.7799988	8133.0000000	8128.0000000	-0.0719479	0.6873221
413340675.0000000	20950.0000000	-0.0063493	-0.0757343	-0.0320000	1.5206683	3.9829886	4.2930002	-1.0418607	2.4568510	124.9575729	29.1816284	-81.0454615	-15.9080000	-0.0204681	-0.1693529	-0.0739952	0.3795372	0.0416441	15.9543571	-2.4375000	-2.0625000	35.0797081	29.1816250	-81.0454615	-15.9543571	29.1816284	-81.0454615	-15.9080000	-0.0050000	-0.0760000	-0.0320000	0.3800000	-0.3700000	10.0699997	0.0625000	0.0625000	0.1250000	-27.7500000	-17.3750000	31.5000000	42.8985672	8148.0000000	8141.0000000	35.1399994	8133.0000000	8117.0000000	-0.2856398	3.6230030
413340700.0000000	20975.0000000	-0.0137011	-0.1634267	-0.0230000	1.9008353	3.9829886	4.2790003	-1.0425404	2.4572692	124.9591599	29.1816318	-81.0454615	-15.9219999	0.0009564	-0.1719851	-0.0557113	0.3848233	0.0414847	15.9414673	-2.4375000	-2.0625000	35.0797081	29.1816284	-81.0454615	-15.9414673	29.1816318	-81.0454615	-15.9219999	0.0330000	-0.1600000	-0.0230000	0.3900000	-0.3600000	9.9899998	-0.1875000	-0.0625000	-0.0000000	-27.7500000	-17.3750000	31.5000000	62.0277252	8145.0000000	8147.0000000	32.9199982	8130.0000000	8128.0000000	0.1082588	-0.6921076
413340725.0000000	21000.0000000	-0.0137011	-0.1634267	-0.0230000	1.9008353	3.9829886	4.2790003	-1.0374037	2.4539075	124.9586945	29.1816318	-81.0454615	-15.9219999	0.0011960	-0.1824659	-0.0609867	0.3848293	0.0412227	15.9415989	-2.4375000	-2.0625000	35.2414665	29.1816284	-81.0454615	-15.9415989	29.1816318	-81.0454615	-15.9219999	0.0330000	-0.1600000	-0.0230000	0.3900000	-0.3500000	10.0600004	-0.0000000	-0.1875000	-0.0000000	-28.5625000	-18.0625000	31.5000000	28.4059258	8145.0000000	8141.0000000	32.4000015	8130.0000000	8131.0000000	-0.1067516	0.6799612
413340750.0000000	21025.0000000	-0.0137011	-0.1634267	-0.0230000	1.9008353	3.9829886	4.2790003	-1.0388869	2.4519677	124.9595413	29.1816318	-81.0454615	-15.9219999	0.0007695	-0.1924613	-0.0648048	0.3848186	0.0409728	15.9416943	-2.4375000	-2.0625000	35.2414665	29.1816284	-81.0454615	-15.9416943	29.1816318	-81.0454615	-15.9219999	0.0330000	-0.1600000	-0.0230000	0.3600000	-0.3500000	10.0000000	-0.1875000	0.0000000	0.0625000	-28.5625000	-18.0625000	31.5000000	75.5541916	8143.0000000	8147.0000000	29.8999996	8124.0000000	8134.0000000	-0.4650900	3.5644808
413340775.0000000	21050.0000000	-0.0137011	-0.1634267	-0.0230000	1.9008353	3.9829886	4.2790003	-1.0388426	2.4515758	124.9595718	29.1816318	-81.0454615	-15.9219999	0.0009155	-0.2022460	-0.0701132	0.3848223	0.0407282	15.9418268	-2.4375000	-2.0625000	35.0848961	29.1816284	-81.0454615	-15.9418268	29.1816318	-81.0454615	-15.9219999	0.0330000	-0.1600000	-0.0230000	0.3700000	-0.3300000	10.0600004	0.1250000	-0.0625000	-0.0625000	-28.1875000	-17.7500000	30.5625000	18.7441635	8143.0000000	8141.0000000	31.4799995	8127.0000000	8131.0000000	0.0327148	-0.6793183
413340800.0000000	21075.0000000	-0.0120303	-0.1434966	-0.0210000	1.9008353	3.9829886	4.2770004	-1.0364883	2.4519513	124.9588013	29.1816318	-81.0454615	-15.9239998	-0.0039529	-0.1848189	-0.0521409	0.3874623	0.0405714	15.9347382	-2.4375000	-2.0625000	35.0848961	29.1816284	-81.0454615	-15.9347382	29.1816318	-81.0454615	-15.9239998	-0.0110000	-0.1430000	-0.0210000	0.3800000	-0.3600000	9.9600000	-0.0000000	0.0625000	-0.0000000	-28.1875000	-17.7500000	30.5625000	75.5541916	8143.0000000	8147.0000000	31.8199997	8130.0000000	8134.0000000	-0.0323762	0.6669673
413340825.0000000	21100.0000000	-0.0120303	-0.1434966	-0.0210000	1.9008353	3.9829886	4.2770004	-1.0301865	2.4527261	124.9590912	29.1816318	-81.0454615	-15.9239998	-0.0044681	-0.1952123	-0.0576975	0.3874494	0.0403116	15.9348774	-2.4375000	-2.0625000	36.4316101	29.1816284	-81.0454615	-15.9348774	29.1816318	-81.0454615	-15.9239998	-0.0110000	-0.1430000	-0.0210000	0.3700000	-0.3600000	10.0699997	-0.0625000	0.0000000	0.0625000	-27.3750000	-18.0625000	31.3750000	42.8985672	8148.0000000	8141.0000000	33.7599983	8136.0000000	8134.0000000	-0.1124949	3.5997503
413340850.0000000	21125.0000000	-0.0120303	-0.1434966	-0.0210000	1.9008353	3.9829886	4.2770004	-1.0300996	2.4523482	124.9599075	29.1816318	-81.0454615	-15.9239998	-0.0043565	-0.2054272	-0.0612366	0.3874522	0.0400562	15.9349661	-2.4375000	-2.0625000	36.4316101	29.1816284	-81.0454615	-15.9349661	29.1816318	-81.0454615	-15.9239998	-0.0110000	-0.1430000	-0.0210000	0.3900000	-0.3400000	9.9899998	-0.0000000	-0.0625000	-0.0000000	-27.3750000	-18.0625000	31.3750000	42.1072884	8148.0000000	8150.0000000	33.7799988	8133.0000000	8128.0000000	0.0734911	-0.6708063
413340875.0000000	21150.0000000	-0.0120303	-0.1434966	-0.0210000	1.9008353	3.9829886	4.2770004	-1.0332054	2.4527221	124.9591446	29.1816318	-81.0454615	-15.9239998	-0.0049668	-0.2153382	-0.0668172	0.3874370	0.0398084	15.9351053	-2.4375000	-2.0625000	35.4941216	29.1816284	-81.0454615	-15.9351053	29.1816318	-81.0454615	-15.9239998	-0.0110000	-0.1430000	-0.0210000	0.3500000	-0.3500000	10.0699997	-0.3125000	0.0625000	-0.0625000	-27.7500000	-17.7500000	30.2500000	45.7999268	8148.0000000	8144.0000000	33.7799988	8133.0000000	8128.0000000	-0.0725124	0.6591167
413340900.0000000	21175.0000000	-0.0096911	-0.1155945	-0.0250000	1.5206683	3.9829886	4.2659998	-1.0378414	2.4546735	124.9591293	29.1816284	-81.0454615	-15.9350004	0.0010347	-0.1817045	-0.0519308	0.3874274	0.0396559	15.9351091	-2.4375000	-2.0625000	35.4941216	29.1816284	-81.0454615	-15.9351091	29.1816284	-81.0454615	-15.9350004	0.0110000	-0.1160000	-0.0250000	0.3600000	-0.3600000	9.9700003	-0.1250000	0.0625000	0.0625000	-27.7500000	-17.7500000	30.2500000	45.7999268	8148.0000000	8144.0000000	34.2000008	8133.0000000	8125.0000000	-0.3051264	3.4357793
413340925.0000000	21200.0000000	-0.0096911	-0.1155945	-0.0250000	1.5206683	3.9829886	4.2659998	-1.0361804	2.4573233	124.9596481	29.1816284	-81.0454615	-15.9350004	0.0014079	-0.1915821	-0.0572271	0.3874367	0.0394090	15.9352417	-2.4375000	-2.0625000	37.0131798	29.1816284	-81.0454615	-15.9352417	29.1816284	-81.0454615	-15.9350004	0.0110000	-0.1160000	-0.0250000	0.3900000	-0.3200000	10.0600004	-0.0000000	-0.0625000	-0.0000000	-27.3750000	-18.5000000	31.0625000	-224.7294006	8140.0000000	8144.0000000	32.5600014	8127.0000000	8125.0000000	-0.3922268	-0.6643505
413340950.0000000	21225.0000000	-0.0096911	-0.1155945	-0.0250000	1.5206683	3.9829886	4.2659998	-1.0361234	2.4561522	124.9597092	29.1816284	-81.0454615	-15.9350004	0.0010314	-0.2018099	-0.0597819	0.3874273	0.0391533	15.9353056	-2.4375000	-2.0625000	37.0131798	29.1816284	-81.0454615	-15.9353056	29.1816284	-81.0454615	-15.9350004	0.0110000	-0.1160000	-0.0250000	0.3800000	-0.3500000	9.9499998	-0.0625000	-0.0625000	-0.0000000	-27.3750000	-18.5000000	31.0625000	62.0277252	8145.0000000	8147.0000000	31.5400009	8122.0000000	8123.0000000	0.3856030	0.6527271
413340975.0000000	21250.0000000	-0.0096911	-0.1155945	-0.0250000	1.5206683	3.9829886	4.2659998	-1.0368469	2.4542005	124.9597626	29.1816284	-81.0454615	-15.9350004	0.0015542	-0.2120922	-0.0653059	0.3874404	0.0388962	15.9354439	-2.4375000	-2.0625000	34.5014229	29.1816284	-81.0454615	-15.9354439	29.1816284	-81.0454615	-15.9350004	0.0110000	-0.1160000	-0.0250000	0.3900000	-0.3400000	10.0699997	-0.0625000	-0.1250000	-0.0000000	-28.8750000	-17.7500000	31.5000000	57.4782715	8143.0000000	8150.0000000	31.7199993	8124.0000000	8125.0000000	1.9607532	3.4130170
413341000.0000000	21275.0000000	-0.0111113	-0.1325351	-0.0280000	1.9008353	3.9829886	4.3260002	-1.0352932	2.4522202	124.9582596	29.1816318	-81.0454615	-15.8750000	-0.0121367	-0.1844807	-0.0520585	0.3900862	0.0387456	15.9113083	-2.4375000	-2.0625000	34.5014229	29.1816284	-81.0454615	-15.9113083	29.1816318	-81.0454615	-15.8750000	-0.0330000	-0.1280000	-0.0280000	0.3800000	-0.3400000	9.9600000	0.1250000	-0.0625000	-0.1250000	-28.8750000	-17.7500000	31.5000000	57.4782715	8143.0000000	8150.0000000	31.7199993	8124.0000000	8125.0000000	0.1003185	-0.6676118
413341025.0000000	21300.0000000	-0.0111113	-0.1325351	-0.0280000	1.9008353	3.9829886	4.3260002	-1.0272018	2.4516556	124.9570541	29.1816318	-81.0454615	-15.8750000	-0.0125587	-0.1948888	-0.0578615	0.3900757	0.0384854	15.9114532	-2.4375000	-2.0625000	35.9579277	29.1816284	-81.0454615	-15.9114532	29.1816318	-81.0454615	-15.8750000	-0.0330000	-0.1280000	-0.0280000	0.3700000	-0.3600000	10.0799999	-0.0000000	0.0000000	0.0625000	-27.3750000	-17.7500000	31.0625000	32.8846970	8151.0000000	8150.0000000	33.3199997	8133.0000000	8131.0000000	-0.0989186	0.6559106
413341050.0000000	21325.0000000	-0.0111113	-0.1325351	-0.0280000	1.9008353	3.9829886	4.3260002	-1.0278518	2.4512935	124.9586411	29.1816318	-81.0454615	-15.8750000	-0.0127593	-0.2048199	-0.0616742	0.3900707	0.0382371	15.9115486	-2.4375000	-2.0625000	35.9579277	29.1816284	-81.0454615	-15.9115486	29.1816318	-81.0454615	-15.8750000	-0.0330000	-0.1280000	-0.0280000	0.3700000	-0.3400000	10.0000000	-0.1250000	-0.0625000	0.0625000	-27.3750000	-17.7500000	31.0625000	41.7380257	8148.0000000	8147.0000000	34.4599991	8133.0000000	8123.0000000	-0.4317169	3.4347193
413341075.0000000	21350.0000000	-0.0111113	-0.1325351	-0.0280000	1.9008353	3.9829886	4.3260002	-1.0262259	2.4524655	124.9586563	29.1816318	-81.0454615	-15.8750000	-0.0134296	-0.2144939	-0.0667664	0.3900539	0.0379952	15.9116755	-2.4375000	-2.0625000	36.6238098	29.1816284	-81.0454615	-15.9116755	29.1816318	-81.0454615	-15.8750000	-0.0330000	-0.1280000	-0.0280000	0.3500000	-0.3400000	10.0500002	0.1875000	0.1250000	-0.0625000	-27.7500000	-18.5000000	31.0625000	57.3912125	8151.0000000	8141.0000000	34.4199982	8130.0000000	8117.0000000	0.1001666	-0.6715702
413341100.0000000	21375.0000000	-0.0106936	-0.1275525	-0.0190000	1.9008353	3.9829886	4.3350000	-1.0214750	2.4536378	124.9586639	29.1816318	-81.0454615	-15.8660002	-0.0254316	-0.1832457	-0.0494907	0.3926922	0.0378415	15.8934507	-2.4375000	-2.0625000	36.6238098	29.1816284	-81.0454615	-15.8934507	29.1816318	-81.0454615	-15.8660002	-0.0430000	-0.1210000	-0.0190000	0.3800000	-0.3500000	9.9700003	0.1250000	-0.0625000	0.0625000	-27.7500000	-18.5000000	31.0625000	71.8838501	8154.0000000	8141.0000000	32.0400009	8127.0000000	8128.0000000	-0.0986496	0.6592002
413341125.0000000	21400.0000000	-0.0106936	-0.1275525	-0.0190000	1.9008353	3.9829886	4.3350000	-1.0120449	2.4517021	124.9590759	29.1816318	-81.0454615	-15.8660002	-0.0255178	-0.1937788	-0.0545254	0.3926900	0.0375782	15.8935766	-2.4375000	-2.0625000	35.0675011	29.1816284	-81.0454615	-15.8935766	29.1816318	-81.0454615	-15.8660002	-0.0430000	-0.1210000	-0.0190000	0.3800000	-0.3600000	10.0500002	0.1250000	-0.1250000	-0.0000000	-27.7500000	-17.3750000	31.3750000	57.3912125	8151.0000000	8141.0000000	33.7799988	8133.0000000	8128.0000000	-0.4589141	3.5964413
413341150.0000000	21425.0000000	-0.0106936	-0.1275525	-0.0190000	1.9008353	3.9829886	4.3350000	-1.0095956	2.4513261	124.9598846	29.1816318	-81.0454615	-15.8660002	-0.0253799	-0.2038396	-0.0578197	0.3926935	0.0373267	15.8936586	-2.4375000	-2.0625000	35.0675011	29.1816284	-81.0454615	-15.8936586	29.1816318	-81.0454615	-15.8660002	-0.0430000	-0.1210000	-0.0190000	0.3800000	-0.3400000	9.9799995	-0.0000000	0.0625000	0.0625000	-27.7500000	-17.3750000	31.3750000	71.8838501	8154.0000000	8141.0000000	32.0400009	8127.0000000	8128.0000000	0.1254610	-0.6833748
413341175.0000000	21450.0000000	-0.0106936	-0.1275525	-0.0190000	1.9008353	3.9829886	4.3350000	-1.0094912	2.4525118	124.9606628	29.1816318	-81.0454615	-15.8660002	-0.0251887	-0.2139722	-0.0631117	0.3926983	0.0370733	15.8937912	-2.4375000	-2.0625000	35.1748848	29.1816284	-81.0454615	-15.8937912	29.1816318	-81.0454615	-15.8660002	-0.0430000	-0.1210000	-0.0190000	0.3800000	-0.3400000	10.0600004	-0.0625000	0.0000000	-0.0000000	-28.1875000	-17.7500000	31.5000000	147.2484283	8151.0000000	8144.0000000	32.4000015	8130.0000000	8131.0000000	-0.1236212	0.6714809
413341200.0000000	21475.0000000	-0.0063493	-0.0757343	-0.0150000	1.9008353	3.9829886	4.3550005	-1.0094864	2.4528754	124.9591217	29.1816318	-81.0454615	-15.8459997	-0.0160089	-0.1650705	-0.0459896	0.3953385	0.0369162	15.8747272	-2.4375000	-2.0625000	35.1748848	29.1816284	-81.0454615	-15.8747272	29.1816318	-81.0454615	-15.8459997	-0.0020000	-0.0760000	-0.0150000	0.3800000	-0.3600000	9.9899998	-0.0000000	0.0000000	-0.1250000	-28.1875000	-17.7500000	31.5000000	147.2484283	8151.0000000	8144.0000000	32.9199982	8130.0000000	8128.0000000	-0.5603560	3.4968791
413341225.0000000	21500.0000000	-0.0063493	-0.0757343	-0.0150000	1.9008353	3.9829886	4.3550005	-1.0035120	2.4534068	124.9579544	29.1816318	-81.0454615	-15.8459997	-0.0160211	-0.1752095	-0.0515389	0.3953382	0.0366627	15.8748655	-2.4375000	-2.0625000	36.4011230	29.1816284	-81.0454615	-15.8748655	29.1816318	-81.0454615	-15.8459997	-0.0020000	-0.0760000	-0.0150000	0.3800000	-0.3400000	10.0699997	-0.0000000	0.0000000	0.0625000	-27.3750000	-18.0625000	31.0625000	-55.6485672	8145.0000000	8144.0000000	33.3199997	8133.0000000	8131.0000000	-0.0971251	-0.6952074
413341250.0000000	21525.0000000	-0.0063493	-0.0757343	-0.0150000	1.9008353	3.9829886	4.3550005	-1.0018368	2.4530308	124.9587631	29.1816318	-81.0454615	-15.8459997	-0.0167781	-0.1857058	-0.0543464	0.3953193	0.0364003	15.8749361	-2.4375000	-2.0625000	36.4011230	29.1816284	-81.0454615	-15.8749361	29.1816318	-81.0454615	-15.8459997	-0.0020000	-0.0760000	-0.0150000	0.3700000	-0.3700000	9.9600000	0.0625000	-0.0625000	-0.0000000	-27.3750000	-18.0625000	31.0625000	58.2828484	8154.0000000	8138.0000000	34.2000008	8133.0000000	8125.0000000	0.0952957	0.6830086
413341275.0000000	21550.0000000	-0.0063493	-0.0757343	-0.0150000	1.9008353	3.9829886	4.3550005	-0.9994802	2.4518318	124.9572449	29.1816318	-81.0454615	-15.8459997	-0.0164526	-0.1959830	-0.0596274	0.3953274	0.0361433	15.8750677	-2.4375000	-2.0625000	35.5730057	29.1816284	-81.0454615	-15.8750677	29.1816318	-81.0454615	-15.8459997	-0.0020000	-0.0760000	-0.0150000	0.3900000	-0.3400000	10.0600004	0.0625000	-0.0625000	-0.1250000	-27.7500000	-17.7500000	31.0625000	147.2484283	8151.0000000	8144.0000000	31.7199993	8124.0000000	8125.0000000	0.5305293	3.5799353
413341300.0000000	21575.0000000	-0.0068506	-0.0817133	-0.0190000	1.9008353	3.9829886	4.4000006	-0.9986531	2.4514287	124.9564819	29.1816318	-81.0454615	-15.8009996	-0.0204613	-0.1548503	-0.0450615	0.3979653	0.0359918	15.8454828	-2.4375000	-2.0625000	35.5730057	29.1816284	-81.0454615	-15.8454828	29.1816318	-81.0454615	-15.8009996	-0.0260000	-0.0780000	-0.0190000	0.3700000	-0.3500000	9.9600000	-0.0625000	0.0000000	0.0625000	-27.7500000	-17.7500000	31.0625000	57.3912125	8151.0000000	8141.0000000	33.3800011	8130.0000000	8125.0000000	0.1001666	-0.6978181
413341325.0000000	21600.0000000	-0.0068506	-0.0817133	-0.0190000	1.9008353	3.9829886	4.4000006	-0.9927782	2.4521480	124.9584656	29.1816318	-81.0454615	-15.8009996	-0.0200341	-0.1653563	-0.0510800	0.3979759	0.0357292	15.8456335	-2.4375000	-2.0625000	34.3461342	29.1816284	-81.0454615	-15.8456335	29.1816318	-81.0454615	-15.8009996	-0.0260000	-0.0780000	-0.0190000	0.3900000	-0.3500000	10.0900002	0.0625000	0.0000000	0.1250000	-28.5625000	-17.3750000	32.2500000	-326.1778870	8137.0000000	8144.0000000	33.2999992	8127.0000000	8120.0000000	-0.0988307	0.6855106
413341350.0000000	21625.0000000	-0.0068506	-0.0817133	-0.0190000	1.9008353	3.9829886	4.4000006	-0.9910976	2.4533339	124.9592438	29.1816318	-81.0454615	-15.8009996	-0.0204081	-0.1749764	-0.0539110	0.3979666	0.0354887	15.8457041	-2.4375000	-2.0625000	34.3461342	29.1816284	-81.0454615	-15.8457041	29.1816318	-81.0454615	-15.8009996	-0.0260000	-0.0780000	-0.0190000	0.3500000	-0.3400000	9.9600000	-0.0000000	0.0625000	-0.0625000	-28.5625000	-17.3750000	32.2500000	51.3298798	8145.0000000	8150.0000000	32.9199982	8130.0000000	8128.0000000	-0.4190056	3.6082127
